
time,qw,qx,qy,qz,roll,pitch,yaw,hfbx,hfby,hfbz,ax,ay,az,hgx,hgy,hgz
0.062442,0.995231,-0.099833,-0.002445,0.000304,-11.461864,-0.275361,0.062609,-0.999567,-0.015265,0.000000,0.001648,-0.107910,-1.005417,0.000000,0.000000,0.500000
0.072469,0.980379,-0.198280,-0.002672,0.000987,-22.878307,-0.277789,0.171594,-0.999388,0.005381,0.005986,-0.006607,-0.104721,-1.008926,0.002403,-0.099358,0.490485
0.082496,0.955891,-0.294503,-0.000972,0.002035,-34.262459,-0.037780,0.255661,-0.999980,0.020302,0.013815,-0.015884,-0.095291,-1.009720,0.002424,-0.194392,0.461143
0.092524,0.922166,-0.387370,0.002171,0.003341,-45.589256,0.377743,0.256628,-0.998857,0.029589,0.020929,-0.023697,-0.086685,-1.008408,0.000330,-0.281515,0.413731
0.102552,0.879544,-0.476253,0.005269,0.004404,-56.890190,0.771409,0.156284,-1.000052,0.028251,0.019392,-0.022079,-0.090790,-1.006393,-0.003296,-0.357213,0.350402
0.112578,0.828576,-0.560189,0.008838,0.005679,-68.148949,1.203800,-0.028097,-0.999106,0.031883,0.024228,-0.027557,-0.105392,-0.997726,-0.006732,-0.418862,0.273617
0.122605,0.769801,-0.638489,0.012285,0.006834,-79.375954,1.583910,-0.296164,-0.999547,0.031417,0.021875,-0.025269,-0.115570,-0.988647,-0.010504,-0.464109,0.186570
0.132633,0.703954,-0.710378,0.014837,0.007001,-90.556549,1.767056,-0.643367,-0.999683,0.029483,0.007259,-0.010345,-0.106079,-0.993835,-0.013820,-0.491425,0.092640
0.142659,0.668687,-0.743529,0.016596,0.006934,-96.098816,1.862811,-0.883191,-0.497278,0.015326,0.001049,-0.005173,-0.099075,-1.004730,-0.015418,-0.499969,-0.004400
0.152687,0.632753,-0.774290,0.018565,0.007057,-101.524414,1.972627,-1.136244,-0.489555,0.015723,0.002677,-0.008743,-0.100525,-1.008423,-0.016253,-0.497074,-0.052809
0.162715,0.596485,-0.802509,0.020486,0.007621,-106.795967,2.101640,-1.364053,-0.476888,0.015415,0.006600,-0.017044,-0.102997,-0.991013,-0.017211,-0.489803,-0.099574
0.172741,0.559905,-0.828387,0.022347,0.008506,-111.936943,2.241778,-1.576967,-0.462702,0.013874,0.012801,-0.029617,-0.091995,-0.970840,-0.018336,-0.478528,-0.144147
0.182768,0.522920,-0.852148,0.024330,0.009756,-116.981796,2.411288,-1.793029,-0.448675,0.009694,0.022961,-0.050079,-0.067856,-0.949951,-0.019558,-0.463628,-0.186434
0.192795,0.486021,-0.873652,0.026114,0.011022,-121.883438,2.558713,-2.002939,-0.431319,0.006828,0.026637,-0.058975,-0.052597,-0.941467,-0.021036,-0.445368,-0.226459
0.202823,0.450071,-0.892656,0.027459,0.011343,-126.549202,2.577341,-2.226555,-0.409887,0.010247,0.018211,-0.043869,-0.049438,-0.959595,-0.022322,-0.424325,-0.263662
0.212850,0.415854,-0.909091,0.028163,0.010125,-130.900909,2.397468,-2.454259,-0.383574,0.020400,0.001462,-0.006760,-0.056961,-0.978470,-0.022484,-0.401447,-0.297307
0.222878,0.383891,-0.923053,0.028379,0.008204,-134.895721,2.116705,-2.643629,-0.353728,0.027092,-0.008673,0.018829,-0.069839,-0.986069,-0.020916,-0.377764,-0.326963
0.232904,0.354065,-0.934896,0.028656,0.007336,-138.571854,1.948932,-2.775059,-0.326533,0.021510,-0.004501,0.008743,-0.075226,-0.993729,-0.018468,-0.354119,-0.352560
0.242931,0.326152,-0.944976,0.029116,0.007809,-141.974182,1.934185,-2.863863,-0.302904,0.013297,0.002008,-0.009796,-0.072357,-0.998718,-0.017004,-0.330804,-0.374584
0.252958,0.299552,-0.953720,0.029499,0.008801,-145.185165,1.974825,-2.924817,-0.286681,0.011969,0.002926,-0.012436,-0.053192,-1.000671,-0.016876,-0.307978,-0.393564
0.262986,0.274379,-0.961243,0.029805,0.010022,-148.198807,2.041429,-2.971180,-0.269775,0.011755,0.003152,-0.013275,-0.037582,-0.995911,-0.017230,-0.285430,-0.410191
0.273013,0.251043,-0.967577,0.030112,0.011075,-150.972427,2.094648,-3.023570,-0.249916,0.012040,0.003013,-0.013580,-0.031601,-1.000061,-0.017811,-0.263446,-0.424616
0.283040,0.229618,-0.972856,0.030495,0.012280,-153.504547,2.171924,-3.080158,-0.230401,0.007690,0.005368,-0.024414,-0.027878,-1.007889,-0.018275,-0.242570,-0.436855
0.293067,0.210269,-0.977187,0.030984,0.013608,-155.781036,2.270958,-3.145700,-0.209838,0.001202,0.008293,-0.039917,-0.029190,-1.005737,-0.018949,-0.223011,-0.447125
0.303094,0.192964,-0.980730,0.031428,0.013990,-157.807190,2.267797,-3.226897,-0.189744,0.003252,0.006788,-0.036407,-0.033234,-1.001816,-0.019813,-0.205051,-0.455602
0.313121,0.177514,-0.983643,0.031826,0.013121,-159.607010,2.126832,-3.324575,-0.171758,0.007851,0.004142,-0.025833,-0.036621,-1.001846,-0.019785,-0.188806,-0.462569
0.323149,0.163893,-0.986011,0.032223,0.011473,-161.186890,1.901886,-3.429303,-0.153412,0.009028,0.002720,-0.020355,-0.044113,-1.001480,-0.018556,-0.174193,-0.468317
0.333177,0.151843,-0.987942,0.032621,0.009826,-162.580353,1.680224,-3.525749,-0.137641,0.007575,0.002247,-0.019135,-0.049759,-1.004532,-0.016594,-0.161230,-0.473008
0.343203,0.140983,-0.989549,0.032957,0.008712,-163.834778,1.520530,-3.600009,-0.124876,0.005710,0.002047,-0.018692,-0.051514,-0.996735,-0.014661,-0.149692,-0.476847
0.353230,0.131066,-0.990914,0.033156,0.007644,-164.977905,1.366101,-3.653528,-0.114415,0.010422,0.000140,-0.005829,-0.050766,-0.987549,-0.013268,-0.139222,-0.480048
0.363258,0.122020,-0.992073,0.033263,0.006408,-166.018143,1.193715,-3.695185,-0.105607,0.015145,-0.001459,0.006683,-0.049271,-0.995285,-0.011920,-0.129622,-0.482763
0.373284,0.113935,-0.993033,0.033431,0.005585,-166.947800,1.072026,-3.734625,-0.096037,0.010883,-0.000649,0.000992,-0.051422,-1.009415,-0.010416,-0.120839,-0.485070
0.383313,0.106183,-0.993896,0.033431,0.004791,-167.838043,0.952489,-3.752425,-0.088213,0.004870,0.000565,-0.009338,-0.051407,-1.015076,-0.009355,-0.112954,-0.486988
0.393340,0.098631,-0.994688,0.033004,0.004776,-168.706818,0.917435,-3.710999,-0.080511,-0.001838,0.001765,-0.020798,-0.050720,-1.001205,-0.008312,-0.105374,-0.488702
0.403366,0.091230,-0.995411,0.032256,0.006164,-169.562271,1.040414,-3.617883,-0.076241,-0.008075,0.002858,-0.031830,-0.042755,-0.969772,-0.008006,-0.097950,-0.490249
0.413394,0.084288,-0.996056,0.031295,0.005768,-170.357986,0.960635,-3.519002,-0.068309,0.012102,-0.000969,0.006134,-0.044968,-0.993927,-0.009079,-0.090612,-0.491639
0.423421,0.078124,-0.996588,0.030426,0.005218,-171.063461,0.868367,-3.430360,-0.059534,0.012554,-0.001121,0.008667,-0.050171,-1.021881,-0.008383,-0.083775,-0.492862
0.433448,0.073349,-0.996973,0.029617,0.005661,-171.612640,0.895708,-3.338311,-0.046886,0.003375,0.000188,-0.008804,-0.064484,-1.035675,-0.007578,-0.077699,-0.493869
0.443476,0.069931,-0.997232,0.028915,0.006744,-172.007828,1.002468,-3.252466,-0.038036,0.004814,-0.000109,-0.006317,-0.073547,-1.043701,-0.007816,-0.072959,-0.494588
0.453502,0.067429,-0.997412,0.028458,0.007477,-172.296768,1.074517,-3.197032,-0.036972,0.014898,-0.001439,0.012939,-0.068130,-1.037476,-0.008748,-0.069542,-0.495064
0.463529,0.066024,-0.997505,0.028351,0.007980,-172.459427,1.126761,-3.182510,-0.034134,0.016248,-0.001553,0.014420,-0.068665,-1.035477,-0.009376,-0.067042,-0.495397
0.473556,0.065567,-0.997525,0.028549,0.008530,-172.513824,1.189592,-3.201659,-0.029874,0.007913,-0.000455,-0.003922,-0.073563,-1.021255,-0.009832,-0.065633,-0.495577
0.483583,0.065994,-0.997484,0.028885,0.008911,-172.466324,1.237109,-3.236726,-0.023504,0.002276,0.000193,-0.016190,-0.083130,-0.991013,-0.010380,-0.065161,-0.495628
0.493611,0.066650,-0.997429,0.029297,0.008896,-172.391556,1.240613,-3.283138,-0.023487,0.000169,0.000489,-0.020767,-0.082092,-0.968613,-0.010795,-0.065571,-0.495565
0.503638,0.066955,-0.997401,0.029693,0.008347,-172.355240,1.181862,-3.332324,-0.029641,0.000013,0.000646,-0.021332,-0.072006,-0.977554,-0.010826,-0.066218,-0.495479
0.513666,0.066986,-0.997393,0.030060,0.007782,-172.350296,1.120238,-3.378492,-0.034323,-0.002950,0.001111,-0.026535,-0.064255,-0.990753,-0.010313,-0.066533,-0.495447
0.523692,0.066849,-0.997391,0.030411,0.007797,-172.366516,1.124195,-3.418682,-0.036143,-0.009199,0.001949,-0.037842,-0.060455,-0.986984,-0.009775,-0.066578,-0.495452
0.533720,0.066421,-0.997412,0.030655,0.007904,-172.416260,1.136779,-3.446261,-0.036708,-0.007785,0.001771,-0.034470,-0.058029,-0.969711,-0.009810,-0.066437,-0.495470
0.543746,0.065567,-0.997466,0.030670,0.008072,-172.514816,1.153142,-3.447761,-0.037321,-0.006715,0.001642,-0.031845,-0.054733,-0.947891,-0.009920,-0.066007,-0.495526
0.553774,0.064591,-0.997532,0.030441,0.008652,-172.628494,1.214377,-3.418475,-0.034570,-0.012986,0.002409,-0.043427,-0.057358,-0.932419,-0.010062,-0.065153,-0.495636
0.563801,0.063552,-0.997609,0.029892,0.009384,-172.749359,1.290558,-3.351559,-0.032755,-0.018948,0.003153,-0.055466,-0.058624,-0.928604,-0.010597,-0.064168,-0.495753
0.573828,0.062896,-0.997673,0.028961,0.009842,-172.824844,1.334022,-3.242635,-0.026923,-0.021488,0.003347,-0.061829,-0.067902,-0.933380,-0.011261,-0.063120,-0.495873
0.583855,0.062515,-0.997728,0.027863,0.009918,-172.867340,1.333682,-3.116889,-0.023287,-0.020073,0.003075,-0.061035,-0.074951,-0.951553,-0.011640,-0.062465,-0.495947
0.593882,0.062255,-0.997781,0.026779,0.009186,-172.893646,1.241408,-2.998377,-0.021419,-0.009878,0.001739,-0.042297,-0.079651,-0.973267,-0.011638,-0.062097,-0.495993
0.603909,0.062241,-0.997818,0.025803,0.007904,-172.890610,1.087858,-2.895691,-0.017185,0.000426,0.000322,-0.020706,-0.088791,-0.987167,-0.010832,-0.061871,-0.496040
0.613937,0.062622,-0.997825,0.024978,0.006622,-172.842575,0.936489,-2.810071,-0.011370,0.006419,-0.000583,-0.006149,-0.102036,-1.002792,-0.009493,-0.061901,-0.496064
0.623964,0.063477,-0.997794,0.024292,0.005524,-172.740875,0.808301,-2.738671,-0.004565,0.011760,-0.001402,0.007492,-0.118118,-1.014969,-0.008172,-0.062320,-0.496035
0.633992,0.064835,-0.997725,0.023743,0.004517,-172.582031,0.692799,-2.682137,0.000840,0.015796,-0.002025,0.018417,-0.133041,-1.030151,-0.007054,-0.063203,-0.495940
0.644019,0.066422,-0.997632,0.023377,0.003662,-172.397354,0.596600,-2.645647,0.002528,0.015066,-0.001993,0.019318,-0.141724,-1.046677,-0.006046,-0.064580,-0.495776
0.654046,0.068192,-0.997518,0.023239,0.003189,-172.192947,0.546142,-2.632539,0.003807,0.010211,-0.001404,0.010803,-0.148331,-1.049789,-0.005206,-0.066180,-0.495575
0.664074,0.070023,-0.997391,0.023239,0.003281,-171.983017,0.561433,-2.630789,0.004045,0.002342,-0.000360,-0.005035,-0.151093,-1.038986,-0.004766,-0.067949,-0.495340
0.674101,0.071868,-0.997258,0.023300,0.003647,-171.772110,0.608645,-2.633693,0.004969,-0.003002,0.000374,-0.016388,-0.154480,-1.022659,-0.004899,-0.069764,-0.495086
0.684128,0.073593,-0.997128,0.023346,0.004181,-171.575424,0.674614,-2.633409,0.006583,-0.008388,0.001143,-0.027954,-0.158478,-1.002136,-0.005311,-0.071586,-0.494822
0.694155,0.075180,-0.997008,0.023346,0.004654,-171.394363,0.732849,-2.628282,0.009875,-0.010873,0.001494,-0.033646,-0.165665,-0.983551,-0.005887,-0.073284,-0.494567
0.704182,0.076706,-0.996891,0.023239,0.005234,-171.220428,0.802179,-2.609893,0.013918,-0.013123,0.001807,-0.039001,-0.175858,-0.976791,-0.006395,-0.074846,-0.494326
0.714209,0.078110,-0.996781,0.023056,0.006210,-171.061462,0.915767,-2.579135,0.017522,-0.015033,0.002075,-0.043839,-0.185043,-0.970596,-0.007000,-0.076346,-0.494089
0.724237,0.079315,-0.996685,0.022812,0.007217,-170.925201,1.031696,-2.541019,0.019007,-0.011314,0.001473,-0.038422,-0.191040,-0.971680,-0.007991,-0.077715,-0.493860
0.734264,0.080140,-0.996619,0.022537,0.007980,-170.831924,1.118433,-2.501845,0.017403,-0.003475,0.000238,-0.024979,-0.192398,-0.982986,-0.009003,-0.078887,-0.493657
0.744291,0.080841,-0.996561,0.022369,0.008636,-170.752701,1.193564,-2.475812,0.017249,0.001599,-0.000599,-0.016281,-0.194778,-0.988266,-0.009760,-0.079689,-0.493514
0.754318,0.081497,-0.996505,0.022324,0.009048,-170.678146,1.241826,-2.465989,0.017920,0.004401,-0.001095,-0.011871,-0.197525,-0.988007,-0.010415,-0.080369,-0.493390
0.764345,0.082138,-0.996449,0.022431,0.009079,-170.604645,1.247908,-2.477124,0.017679,0.007188,-0.001569,-0.007034,-0.198639,-0.989365,-0.010836,-0.081010,-0.493276
0.774372,0.082778,-0.996392,0.022690,0.008911,-170.531021,1.232772,-2.507515,0.016019,0.008200,-0.001711,-0.005112,-0.197754,-0.995483,-0.010889,-0.081643,-0.493171
0.784400,0.083222,-0.996346,0.023026,0.008972,-170.480545,1.244071,-2.544782,0.011104,0.004752,-0.001035,-0.012054,-0.190475,-1.003662,-0.010757,-0.082278,-0.493068
0.794427,0.083404,-0.996320,0.023498,0.008987,-170.460251,1.250776,-2.598431,0.004366,0.004825,-0.000906,-0.012177,-0.178085,-1.007477,-0.010856,-0.082711,-0.492994
0.804454,0.083283,-0.996317,0.024018,0.009079,-170.475021,1.265869,-2.657027,-0.002507,0.004611,-0.000720,-0.012741,-0.163940,-1.005844,-0.010914,-0.082886,-0.492963
0.814481,0.082977,-0.996324,0.024551,0.009720,-170.512466,1.343289,-2.712378,-0.007758,-0.001292,0.000391,-0.024963,-0.151382,-0.996231,-0.011046,-0.082758,-0.492981
0.824508,0.082550,-0.996339,0.025024,0.010574,-170.564377,1.444167,-2.759002,-0.011208,-0.004588,0.001034,-0.032715,-0.142197,-0.985947,-0.011721,-0.082434,-0.493020
0.834536,0.082107,-0.996356,0.025390,0.011520,-170.618317,1.554392,-2.792653,-0.012015,-0.007684,0.001585,-0.040222,-0.137924,-0.973740,-0.012601,-0.081983,-0.493074
0.844563,0.081619,-0.996378,0.025665,0.012375,-170.676971,1.653185,-2.816925,-0.012627,-0.009112,0.001853,-0.044434,-0.134171,-0.962296,-0.013563,-0.081515,-0.493126
0.854590,0.081177,-0.996406,0.025910,0.012558,-170.728592,1.675132,-2.843913,-0.011352,-0.003968,0.000984,-0.035782,-0.134979,-0.957336,-0.014425,-0.081006,-0.493185
0.864617,0.080947,-0.996422,0.026214,0.012161,-170.754501,1.631961,-2.882777,-0.008570,0.000677,0.000143,-0.027039,-0.139542,-0.957306,-0.014616,-0.080560,-0.493253
0.874644,0.080582,-0.996450,0.026581,0.011414,-170.795059,1.548901,-2.932096,-0.011544,0.005081,-0.000494,-0.017853,-0.134598,-0.966690,-0.014240,-0.080339,-0.493300
0.884671,0.080169,-0.996482,0.027023,0.010528,-170.840775,1.450637,-2.991315,-0.015673,0.008560,-0.000959,-0.009796,-0.128769,-0.989761,-0.013515,-0.079993,-0.493376
0.894699,0.079834,-0.996503,0.027527,0.009689,-170.877625,1.358380,-3.056973,-0.017781,0.008508,-0.000916,-0.008362,-0.126205,-1.009521,-0.012658,-0.079602,-0.493462
0.904726,0.079636,-0.996506,0.028030,0.009583,-170.900757,1.350158,-3.115777,-0.019016,0.002291,0.000089,-0.019547,-0.123138,-1.010590,-0.011853,-0.079288,-0.493533
0.914753,0.079543,-0.996494,0.028518,0.010116,-170.913620,1.415285,-3.166871,-0.018932,-0.002288,0.000818,-0.028625,-0.121964,-1.003021,-0.011781,-0.079089,-0.493566
0.924780,0.079346,-0.996494,0.028931,0.010468,-170.937897,1.458497,-3.211144,-0.018366,0.001856,0.000162,-0.021088,-0.121689,-0.993240,-0.012349,-0.078976,-0.493571
0.934807,0.078980,-0.996510,0.029251,0.010880,-170.981689,1.507264,-3.244632,-0.016475,0.000801,0.000297,-0.023483,-0.122467,-0.972488,-0.012726,-0.078765,-0.493595
0.944834,0.078415,-0.996540,0.029450,0.011627,-171.049103,1.592604,-3.261535,-0.013925,-0.005353,0.001221,-0.035782,-0.124084,-0.952072,-0.013152,-0.078386,-0.493644
0.954862,0.077712,-0.996586,0.029449,0.012375,-171.132141,1.675688,-3.256046,-0.011421,-0.008257,0.001623,-0.042496,-0.126663,-0.943649,-0.013896,-0.077801,-0.493716
0.964889,0.076889,-0.996647,0.029236,0.013046,-171.228302,1.747851,-3.227218,-0.009455,-0.009348,0.001739,-0.046219,-0.129700,-0.948410,-0.014621,-0.077082,-0.493808
0.974916,0.075989,-0.996716,0.028915,0.013779,-171.333389,1.825824,-3.185847,-0.008453,-0.010332,0.001856,-0.050034,-0.131866,-0.961929,-0.015251,-0.076250,-0.493918
0.984943,0.074967,-0.996804,0.028504,0.013901,-171.450348,1.833006,-3.139594,-0.007969,-0.002136,0.000583,-0.035431,-0.131821,-0.967743,-0.015931,-0.075341,-0.494036
0.994970,0.074020,-0.996885,0.028122,0.013901,-171.558411,1.826787,-3.097668,-0.006088,0.000110,0.000180,-0.031067,-0.133377,-0.966690,-0.015993,-0.074331,-0.494187
1.004997,0.073242,-0.996952,0.027725,0.014038,-171.647415,1.836761,-3.052592,-0.003776,-0.001932,0.000409,-0.035156,-0.136734,-0.971359,-0.015939,-0.073399,-0.494328
1.015025,0.072616,-0.997006,0.027328,0.014221,-171.719116,1.852473,-3.006840,-0.003181,-0.002891,0.000528,-0.037201,-0.136292,-0.970779,-0.016026,-0.072630,-0.494438
1.025052,0.072220,-0.997043,0.026917,0.014435,-171.764450,1.872311,-2.958725,-0.001588,-0.004369,0.000688,-0.040543,-0.138702,-0.974243,-0.016163,-0.072010,-0.494525
1.035079,0.072067,-0.997062,0.026535,0.014618,-171.781860,1.889627,-2.913852,0.000333,-0.004346,0.000618,-0.040756,-0.141464,-0.972351,-0.016336,-0.071618,-0.494576
1.045106,0.072281,-0.997056,0.026138,0.014633,-171.756531,1.888746,-2.867966,0.004340,-0.002561,0.000225,-0.037628,-0.149612,-0.975449,-0.016487,-0.071467,-0.494593
1.055133,0.072830,-0.997023,0.025787,0.014801,-171.693222,1.906586,-2.825394,0.007233,-0.003793,0.000309,-0.040192,-0.156265,-0.978073,-0.016479,-0.071686,-0.494561
1.065161,0.073533,-0.996978,0.025544,0.014725,-171.611801,1.897841,-2.796803,0.008426,-0.002377,0.000064,-0.037689,-0.159851,-0.978561,-0.016635,-0.072232,-0.494477
1.075188,0.074372,-0.996926,0.025406,0.014282,-171.514069,1.848448,-2.783198,0.009931,0.000708,-0.000437,-0.031311,-0.164078,-0.977203,-0.016559,-0.072935,-0.494376
1.085215,0.075241,-0.996870,0.025375,0.013718,-171.412766,1.786079,-2.782867,0.010542,-0.000552,-0.000261,-0.032913,-0.166611,-0.974793,-0.016128,-0.073781,-0.494265
1.095242,0.075989,-0.996826,0.025406,0.012665,-171.324234,1.668135,-2.794070,0.008628,0.002287,-0.000618,-0.026443,-0.166290,-0.985168,-0.015584,-0.074657,-0.494151
1.105269,0.076705,-0.996784,0.025451,0.011612,-171.239334,1.550234,-2.807214,0.007294,0.001803,-0.000490,-0.025833,-0.168106,-1.002838,-0.014555,-0.075426,-0.494065
1.115296,0.077331,-0.996743,0.025497,0.010818,-171.165436,1.461762,-2.818439,0.005694,0.000647,-0.000256,-0.026199,-0.166779,-1.005508,-0.013527,-0.076163,-0.493982
1.125324,0.077774,-0.996715,0.025528,0.010086,-171.112686,1.379619,-2.827745,0.002723,0.003920,-0.000680,-0.017868,-0.161804,-1.004456,-0.012755,-0.076803,-0.493903
1.135351,0.078019,-0.996699,0.025574,0.009644,-171.083405,1.330193,-2.836595,-0.000443,0.004371,-0.000673,-0.015549,-0.156815,-1.008209,-0.012038,-0.077261,-0.493850
1.145378,0.078187,-0.996684,0.025620,0.009659,-171.064209,1.332823,-2.841470,-0.001164,0.001773,-0.000251,-0.020065,-0.156082,-1.009689,-0.011607,-0.077515,-0.493820
1.155405,0.078339,-0.996669,0.025635,0.009949,-171.047470,1.366512,-2.840435,-0.000002,0.000550,-0.000086,-0.022568,-0.158310,-1.006363,-0.011630,-0.077680,-0.493794
1.165432,0.078415,-0.996660,0.025620,0.010315,-171.039719,1.408411,-2.835304,-0.000186,0.000755,-0.000115,-0.022430,-0.156052,-0.992493,-0.011924,-0.077824,-0.493764
1.175459,0.078751,-0.996630,0.025696,0.010483,-171.001709,1.429226,-2.842054,0.002072,-0.002109,0.000281,-0.028076,-0.155670,-0.960907,-0.012289,-0.077889,-0.493745
1.185487,0.079605,-0.996560,0.025863,0.010345,-170.903488,1.417486,-2.861230,0.009505,-0.003523,0.000318,-0.030624,-0.167664,-0.941971,-0.012471,-0.078216,-0.493688
1.195514,0.080170,-0.996511,0.026016,0.010223,-170.838379,1.406582,-2.879012,0.007290,-0.001979,0.000134,-0.027802,-0.167191,-0.954346,-0.012369,-0.079063,-0.493556
1.205541,0.080398,-0.996487,0.026092,0.010590,-170.813248,1.449755,-2.884048,0.005485,-0.003199,0.000380,-0.030029,-0.164825,-0.954742,-0.012274,-0.079624,-0.493468
1.215568,0.080369,-0.996487,0.026017,0.010971,-170.817505,1.492561,-2.871938,0.006013,-0.001029,0.000012,-0.026688,-0.167480,-0.961548,-0.012650,-0.079840,-0.493424
1.225595,0.080171,-0.996501,0.025925,0.011368,-170.841217,1.536462,-2.858162,0.005793,-0.001055,0.000018,-0.027863,-0.169373,-0.975372,-0.013024,-0.079801,-0.493420
1.235622,0.079835,-0.996528,0.025864,0.011536,-170.880188,1.554109,-2.850174,0.004363,-0.000496,-0.000038,-0.027664,-0.167099,-0.981339,-0.013407,-0.079595,-0.493443
1.245650,0.079406,-0.996563,0.025833,0.011505,-170.929245,1.549106,-2.847597,0.002803,-0.000509,0.000005,-0.028122,-0.164017,-0.985870,-0.013560,-0.079259,-0.493493
1.255677,0.078995,-0.996599,0.025818,0.011246,-170.975830,1.518170,-2.848828,0.001679,0.000243,-0.000085,-0.026627,-0.161591,-0.990280,-0.013517,-0.078836,-0.493562
1.265704,0.078674,-0.996629,0.025818,0.010849,-171.011612,1.471935,-2.852850,0.001833,-0.000167,-0.000023,-0.027039,-0.161819,-0.994843,-0.013247,-0.078436,-0.493633
1.275731,0.078399,-0.996655,0.025833,0.010467,-171.042236,1.427702,-2.858376,0.002926,-0.002018,0.000243,-0.029724,-0.161896,-0.985596,-0.012844,-0.078129,-0.493693
1.285758,0.078171,-0.996675,0.025848,0.010117,-171.067566,1.387101,-2.863573,0.004364,-0.002271,0.000248,-0.029083,-0.162140,-0.972824,-0.012458,-0.077867,-0.493744
1.295786,0.078232,-0.996674,0.025879,0.009735,-171.059601,1.343971,-2.870358,0.007823,0.001154,-0.000373,-0.021606,-0.169159,-0.975922,-0.012104,-0.077650,-0.493787
1.305813,0.078368,-0.996663,0.025955,0.009521,-171.043457,1.320631,-2.880764,0.007868,0.001502,-0.000423,-0.020340,-0.170868,-0.984436,-0.011727,-0.077720,-0.493785
1.315840,0.078460,-0.996653,0.026169,0.009232,-171.032379,1.289702,-2.907657,0.005179,0.004111,-0.000769,-0.014832,-0.167572,-0.995560,-0.011524,-0.077860,-0.493768
1.325867,0.078522,-0.996641,0.026520,0.009018,-171.025208,1.268632,-2.949609,0.002532,0.005433,-0.000915,-0.011642,-0.163010,-0.999588,-0.011254,-0.077956,-0.493759
1.335894,0.078461,-0.996632,0.026993,0.009079,-171.032913,1.279674,-3.003237,-0.000923,0.002849,-0.000429,-0.016479,-0.155167,-0.993897,-0.011070,-0.078019,-0.493753
1.345921,0.078293,-0.996629,0.027496,0.009415,-171.053833,1.322012,-3.058026,-0.004082,-0.000711,0.000204,-0.023727,-0.147385,-0.985764,-0.011166,-0.077952,-0.493761
1.355949,0.078064,-0.996627,0.027985,0.010056,-171.082642,1.398867,-3.108479,-0.004893,-0.005780,0.001025,-0.034210,-0.143341,-0.971939,-0.011536,-0.077770,-0.493782
1.365976,0.077759,-0.996633,0.028443,0.010529,-171.119675,1.456023,-3.157097,-0.005170,-0.006261,0.001111,-0.036407,-0.141983,-0.969849,-0.012206,-0.077519,-0.493805
1.376003,0.077286,-0.996656,0.028854,0.010712,-171.175232,1.479065,-3.203270,-0.007066,-0.005832,0.001094,-0.036713,-0.138290,-0.974823,-0.012705,-0.077198,-0.493843
1.386030,0.076676,-0.996693,0.029190,0.010757,-171.245926,1.485283,-3.242183,-0.007719,-0.008922,0.001588,-0.043365,-0.136337,-0.977081,-0.012906,-0.076718,-0.493912
1.396057,0.076020,-0.996738,0.029450,0.010529,-171.320984,1.459251,-3.274787,-0.007161,-0.008684,0.001526,-0.043045,-0.136398,-0.978348,-0.012960,-0.076108,-0.494005
1.406084,0.075286,-0.996789,0.029617,0.010513,-171.405380,1.456528,-3.295151,-0.006362,-0.009104,0.001554,-0.043457,-0.136780,-0.979019,-0.012733,-0.075461,-0.494110
1.416112,0.074524,-0.996840,0.029709,0.010773,-171.493897,1.484433,-3.304567,-0.003978,-0.006636,0.001106,-0.038681,-0.140869,-0.984558,-0.012709,-0.074733,-0.494221
1.426139,0.073593,-0.996906,0.029755,0.011002,-171.601532,1.507893,-3.309295,-0.003616,0.002608,-0.000296,-0.020599,-0.140381,-0.986893,-0.012953,-0.073968,-0.494330
1.436166,0.072555,-0.996974,0.029785,0.011581,-171.722611,1.570948,-3.309578,-0.002870,0.001877,-0.000201,-0.022385,-0.139420,-0.982864,-0.013157,-0.073038,-0.494463
1.446193,0.071548,-0.997039,0.029739,0.012329,-171.840439,1.652685,-3.299901,-0.000750,-0.001168,0.000191,-0.029465,-0.140976,-0.978867,-0.013707,-0.071991,-0.494602
1.456220,0.070619,-0.997100,0.029648,0.012970,-171.949005,1.722142,-3.285911,0.000078,-0.003817,0.000545,-0.036179,-0.140625,-0.979202,-0.014420,-0.070970,-0.494729
1.466247,0.069779,-0.997153,0.029587,0.013580,-172.047195,1.788640,-3.275553,-0.000509,-0.005216,0.000754,-0.040146,-0.137497,-0.978775,-0.015026,-0.070029,-0.494845
1.476275,0.068984,-0.997201,0.029632,0.014053,-172.139938,1.840437,-3.278498,-0.001421,-0.003712,0.000564,-0.038544,-0.134903,-0.985626,-0.015606,-0.069178,-0.494946
1.486302,0.068039,-0.997260,0.029770,0.014114,-172.248871,1.845398,-3.295533,-0.004597,0.004154,-0.000425,-0.023697,-0.127258,-0.988373,-0.016058,-0.068375,-0.495044
1.496329,0.067078,-0.997316,0.029984,0.014359,-172.360443,1.871754,-3.319899,-0.005342,0.001865,-0.000080,-0.028168,-0.122894,-0.980759,-0.016101,-0.067433,-0.495171
1.506356,0.066207,-0.997362,0.030151,0.014831,-172.462173,1.924174,-3.337176,-0.002489,-0.003846,0.000598,-0.039856,-0.126114,-0.976669,-0.016331,-0.066467,-0.495294
1.516383,0.065430,-0.997406,0.030197,0.015198,-172.552628,1.963811,-3.341268,0.000753,-0.007261,0.000936,-0.047226,-0.129898,-0.969940,-0.016788,-0.065585,-0.495397
1.526411,0.064620,-0.997458,0.030182,0.015289,-172.645783,1.971439,-3.340419,0.000216,-0.008380,0.001088,-0.050156,-0.127411,-0.970947,-0.017134,-0.064801,-0.495488
1.536438,0.063720,-0.997524,0.030090,0.014923,-172.747772,1.925898,-3.334346,-0.002773,-0.003379,0.000533,-0.040817,-0.121216,-0.981613,-0.017201,-0.063995,-0.495590
1.546465,0.062989,-0.997583,0.029969,0.014313,-172.829636,1.852807,-3.326137,-0.002685,0.000782,-0.000009,-0.032181,-0.121384,-0.996094,-0.016803,-0.063114,-0.495717
1.556492,0.062393,-0.997631,0.029983,0.013534,-172.895630,1.761916,-3.334395,-0.003320,0.004195,-0.000420,-0.024277,-0.120071,-1.007965,-0.016166,-0.062408,-0.495828
1.566519,0.061784,-0.997678,0.030136,0.012512,-172.962601,1.644070,-3.360087,-0.004171,0.008974,-0.000990,-0.012817,-0.116516,-1.002457,-0.015373,-0.061839,-0.495924
1.576546,0.061249,-0.997714,0.030350,0.011749,-173.021866,1.556497,-3.390644,-0.003220,0.005952,-0.000642,-0.016663,-0.115738,-0.989456,-0.014345,-0.061263,-0.496026
1.586574,0.060745,-0.997746,0.030517,0.011230,-173.078339,1.496596,-3.414144,-0.002450,0.002221,-0.000205,-0.022522,-0.115707,-0.984879,-0.013581,-0.060752,-0.496111
1.596601,0.060272,-0.997775,0.030594,0.010956,-173.131714,1.464115,-3.425494,-0.001938,-0.000249,0.000081,-0.026489,-0.116058,-0.987534,-0.013059,-0.060265,-0.496184
1.606628,0.059814,-0.997802,0.030670,0.010773,-173.183777,1.442119,-3.436121,-0.002680,-0.001263,0.000221,-0.028061,-0.114075,-0.991318,-0.012775,-0.059803,-0.496247
1.616655,0.059342,-0.997833,0.030732,0.010269,-173.236374,1.383341,-3.447208,-0.003439,0.004776,-0.000484,-0.015762,-0.113266,-1.005768,-0.012584,-0.059353,-0.496306
1.626682,0.058930,-0.997859,0.030838,0.009873,-173.282501,1.337256,-3.462624,-0.002810,0.005559,-0.000591,-0.013138,-0.113709,-1.006607,-0.012071,-0.058898,-0.496373
1.636709,0.058563,-0.997878,0.030960,0.009781,-173.324448,1.326313,-3.477655,-0.002560,0.004048,-0.000417,-0.015320,-0.112793,-1.001251,-0.011669,-0.058499,-0.496430
1.646737,0.058075,-0.997902,0.031067,0.009781,-173.380539,1.325333,-3.490563,-0.003824,0.005019,-0.000499,-0.013153,-0.109436,-1.000778,-0.011573,-0.058136,-0.496475
1.656764,0.057632,-0.997924,0.031158,0.009979,-173.432144,1.347062,-3.500314,-0.002402,0.002252,-0.000205,-0.018662,-0.110840,-0.996429,-0.011565,-0.057650,-0.496532
1.666791,0.057190,-0.997946,0.031174,0.010208,-173.483643,1.371799,-3.501207,-0.000828,-0.000809,0.000113,-0.025055,-0.112366,-0.989899,-0.011754,-0.057202,-0.496579
1.676818,0.056717,-0.997974,0.031143,0.010193,-173.537842,1.368195,-3.498451,-0.000663,-0.000118,0.000029,-0.024185,-0.112213,-0.993591,-0.011970,-0.056755,-0.496625
1.686845,0.056167,-0.998009,0.031067,0.010116,-173.600555,1.357038,-3.490911,-0.001054,-0.001727,0.000221,-0.027359,-0.110474,-0.993591,-0.011939,-0.056285,-0.496679
1.696872,0.055573,-0.998047,0.030930,0.009995,-173.668167,1.340136,-3.476783,-0.000471,-0.001864,0.000220,-0.027313,-0.110046,-0.989105,-0.011841,-0.055741,-0.496743
1.706900,0.054962,-0.998088,0.030792,0.009720,-173.737122,1.305725,-3.463557,-0.000607,0.002240,-0.000234,-0.018829,-0.108795,-0.990952,-0.011694,-0.055155,-0.496812
1.716927,0.054413,-0.998123,0.030624,0.009735,-173.799912,1.304531,-3.444975,-0.000719,-0.000485,0.000070,-0.023804,-0.107849,-0.995438,-0.011394,-0.054558,-0.496885
1.726954,0.054001,-0.998150,0.030456,0.009766,-173.847076,1.305563,-3.426096,0.000041,-0.000964,0.000104,-0.024857,-0.108765,-0.999924,-0.011383,-0.054013,-0.496944
1.736981,0.053635,-0.998176,0.030274,0.009674,-173.888458,1.292729,-3.406192,-0.000743,0.000677,-0.000056,-0.021637,-0.106766,-1.003876,-0.011392,-0.053603,-0.496989
1.747008,0.053421,-0.998192,0.030106,0.009781,-173.913086,1.303198,-3.386605,0.000683,-0.002041,0.000203,-0.026627,-0.107697,-0.992523,-0.011280,-0.053244,-0.497030
1.757035,0.053330,-0.998202,0.029938,0.009796,-173.923462,1.303605,-3.367394,0.002751,0.000923,-0.000161,-0.020660,-0.110397,-0.983414,-0.011372,-0.053030,-0.497051
1.767063,0.053299,-0.998207,0.029800,0.009903,-173.927185,1.314873,-3.351034,0.004309,-0.003224,0.000245,-0.028900,-0.113220,-0.982513,-0.011375,-0.052940,-0.497060
1.777090,0.053344,-0.998209,0.029678,0.009766,-173.921326,1.298577,-3.337827,0.006382,-0.002656,0.000135,-0.027786,-0.116531,-0.976181,-0.011473,-0.052908,-0.497061
1.787117,0.053452,-0.998210,0.029557,0.009476,-173.907898,1.265044,-3.325504,0.008022,-0.002591,0.000093,-0.027313,-0.119583,-0.973740,-0.011331,-0.052959,-0.497059
1.797144,0.053635,-0.998204,0.029495,0.009247,-173.886124,1.239088,-3.319649,0.007854,-0.003529,0.000202,-0.028763,-0.120193,-0.979538,-0.011039,-0.053076,-0.497053
1.807171,0.053940,-0.998188,0.029480,0.009216,-173.851013,1.236516,-3.317707,0.008336,-0.001870,0.000019,-0.025482,-0.123764,-0.997543,-0.010812,-0.053266,-0.497038
1.817198,0.054215,-0.998170,0.029541,0.009338,-173.819992,1.251767,-3.323601,0.006117,0.001821,-0.000329,-0.018082,-0.120590,-1.003403,-0.010790,-0.053571,-0.497006
1.827226,0.054535,-0.998148,0.029663,0.009460,-173.783829,1.267548,-3.336406,0.005324,0.004195,-0.000571,-0.013489,-0.119202,-1.000671,-0.010923,-0.053839,-0.496974
1.837253,0.054855,-0.998125,0.029831,0.009537,-173.747482,1.278406,-3.354771,0.004851,0.001428,-0.000264,-0.019302,-0.118423,-0.996796,-0.011061,-0.054153,-0.496936
1.847280,0.055251,-0.998097,0.030029,0.009567,-173.702423,1.284461,-3.376747,0.005203,-0.004124,0.000335,-0.030502,-0.118958,-0.989944,-0.011155,-0.054468,-0.496900
1.857307,0.055633,-0.998073,0.030212,0.009323,-173.658066,1.258994,-3.398772,0.005354,-0.005491,0.000485,-0.033234,-0.119614,-0.986328,-0.011208,-0.054859,-0.496856
1.867334,0.055969,-0.998048,0.030396,0.009338,-173.619797,1.263059,-3.419238,0.004928,-0.009552,0.000953,-0.040848,-0.119308,-0.984436,-0.010986,-0.055244,-0.496818
1.877362,0.056152,-0.998030,0.030548,0.009674,-173.600113,1.303057,-3.434345,0.003121,-0.009563,0.001001,-0.040909,-0.116287,-0.983795,-0.011021,-0.055576,-0.496780
1.887389,0.056061,-0.998028,0.030655,0.009979,-173.611679,1.338353,-3.444812,0.000907,-0.002970,0.000313,-0.028305,-0.111679,-0.979141,-0.011370,-0.055746,-0.496753
1.897416,0.055802,-0.998036,0.030762,0.010376,-173.642929,1.383506,-3.454873,-0.000443,-0.004843,0.000553,-0.032501,-0.108383,-0.975372,-0.011678,-0.055645,-0.496758
1.907443,0.055466,-0.998049,0.030853,0.010651,-173.682495,1.414338,-3.464100,0.000477,-0.008804,0.000970,-0.041046,-0.109497,-0.973908,-0.012072,-0.055373,-0.496779
1.917470,0.055053,-0.998071,0.030929,0.010513,-173.729462,1.397665,-3.474242,-0.000659,-0.008895,0.001002,-0.042084,-0.107437,-0.981796,-0.012341,-0.055029,-0.496810
1.927497,0.054535,-0.998101,0.030976,0.010239,-173.788010,1.364748,-3.481942,-0.002396,-0.010170,0.001177,-0.044327,-0.103180,-0.981903,-0.012196,-0.054622,-0.496859
1.937525,0.054153,-0.998120,0.031052,0.010117,-173.831528,1.349908,-3.491906,0.000420,-0.009437,0.001018,-0.042282,-0.107712,-0.981415,-0.011909,-0.054115,-0.496921
1.947552,0.053818,-0.998135,0.031174,0.010056,-173.869888,1.342522,-3.506758,0.000929,-0.004354,0.000449,-0.032120,-0.108658,-0.987686,-0.011779,-0.053737,-0.496965
1.957579,0.053452,-0.998148,0.031403,0.009979,-173.911942,1.333900,-3.533914,-0.000535,0.001080,-0.000103,-0.021286,-0.105881,-0.995392,-0.011715,-0.053405,-0.497002
1.967606,0.053131,-0.998157,0.031693,0.009964,-173.949066,1.332765,-3.567611,-0.001227,-0.000947,0.000130,-0.025360,-0.104340,-1.001068,-0.011639,-0.053040,-0.497043
1.977633,0.052887,-0.998161,0.031982,0.009918,-173.977356,1.328387,-3.601376,-0.002170,-0.004550,0.000533,-0.032867,-0.102509,-1.008286,-0.011630,-0.052718,-0.497078
1.987660,0.052704,-0.998163,0.032196,0.009964,-173.998703,1.334272,-3.625874,-0.003241,-0.008340,0.000956,-0.040604,-0.100037,-1.010468,-0.011591,-0.052472,-0.497105
1.997688,0.052566,-0.998164,0.032333,0.010132,-174.015305,1.353777,-3.640747,-0.005954,-0.007307,0.000908,-0.038498,-0.093903,-1.008118,-0.011643,-0.052287,-0.497123
2.007715,0.052476,-0.998164,0.032425,0.010300,-174.026413,1.373215,-3.650420,-0.006504,-0.003093,0.000479,-0.030334,-0.092743,-1.010849,-0.011813,-0.052142,-0.497134
2.017742,0.052430,-0.998162,0.032547,0.010376,-174.032120,1.382501,-3.664007,-0.006024,0.002691,-0.000136,-0.018875,-0.093552,-1.011124,-0.011982,-0.052045,-0.497140
2.027769,0.052384,-0.998159,0.032639,0.010620,-174.038376,1.410805,-3.673111,-0.004864,0.000573,0.000058,-0.023117,-0.094803,-1.000443,-0.012063,-0.051996,-0.497143
2.037796,0.052323,-0.998158,0.032684,0.010880,-174.046356,1.440528,-3.676915,-0.003029,-0.000557,0.000133,-0.025620,-0.097336,-0.989639,-0.012310,-0.051941,-0.497143
2.047823,0.052200,-0.998164,0.032638,0.011047,-174.060944,1.458994,-3.670833,-0.002146,-0.001345,0.000195,-0.027527,-0.098297,-0.982986,-0.012570,-0.051871,-0.497144
2.057851,0.052018,-0.998176,0.032517,0.011200,-174.082214,1.475075,-3.656270,-0.000838,-0.003369,0.000372,-0.031799,-0.100418,-0.980789,-0.012731,-0.051744,-0.497153
2.067878,0.051819,-0.998190,0.032364,0.011276,-174.105026,1.482175,-3.638638,-0.000120,-0.001020,0.000109,-0.027496,-0.101776,-0.983704,-0.012871,-0.051558,-0.497169
2.077905,0.051666,-0.998202,0.032272,0.011154,-174.121979,1.467111,-3.629074,0.002484,0.003027,-0.000377,-0.019531,-0.106384,-0.982071,-0.012933,-0.051360,-0.497188
2.087932,0.051559,-0.998212,0.032242,0.010834,-174.133087,1.429875,-3.627569,0.004099,0.005590,-0.000681,-0.014221,-0.109650,-0.985199,-0.012802,-0.051214,-0.497206
2.097959,0.051423,-0.998223,0.032288,0.010346,-174.147141,1.373796,-3.635863,0.002718,0.005485,-0.000632,-0.013870,-0.107315,-0.990860,-0.012477,-0.051118,-0.497224
2.107986,0.051239,-0.998233,0.032410,0.009857,-174.166611,1.317971,-3.652887,0.000084,0.005279,-0.000543,-0.013290,-0.101608,-0.989105,-0.011987,-0.050997,-0.497249
2.118014,0.051147,-0.998237,0.032501,0.009689,-174.176712,1.298949,-3.664418,-0.000022,0.002580,-0.000263,-0.017670,-0.100784,-0.986435,-0.011500,-0.050829,-0.497277
2.128041,0.051117,-0.998236,0.032517,0.009872,-174.180786,1.319896,-3.665203,0.000319,-0.000791,0.000073,-0.024216,-0.101944,-0.992813,-0.011334,-0.050742,-0.497290
2.138068,0.051087,-0.998234,0.032532,0.010178,-174.185394,1.354785,-3.665234,0.000608,-0.000352,0.000022,-0.023499,-0.101578,-0.984345,-0.011517,-0.050706,-0.497290
2.148095,0.050979,-0.998236,0.032562,0.010452,-174.198746,1.385973,-3.667258,0.001541,0.001621,-0.000202,-0.019928,-0.102097,-0.972351,-0.011822,-0.050665,-0.497287
2.158122,0.050858,-0.998238,0.032608,0.010696,-174.213562,1.413749,-3.671339,0.004874,0.000723,-0.000192,-0.022003,-0.107346,-0.962647,-0.012094,-0.050549,-0.497292
2.168150,0.050705,-0.998242,0.032684,0.010834,-174.231720,1.429323,-3.679474,0.006510,-0.000610,-0.000100,-0.024994,-0.109955,-0.959763,-0.012336,-0.050420,-0.497299
2.178177,0.050431,-0.998253,0.032776,0.010742,-174.262939,1.418380,-3.690911,0.004534,-0.001001,-0.000012,-0.026108,-0.106186,-0.963226,-0.012472,-0.050262,-0.497312
2.188204,0.050079,-0.998272,0.032898,0.010345,-174.302017,1.372368,-3.707574,0.001590,0.000485,-0.000088,-0.023254,-0.100906,-0.972778,-0.012376,-0.049991,-0.497341
2.198231,0.049744,-0.998290,0.033005,0.009796,-174.338654,1.308882,-3.723347,-0.000647,-0.000727,0.000088,-0.025131,-0.096924,-0.983810,-0.011975,-0.049652,-0.497385
2.208258,0.049531,-0.998304,0.033036,0.009323,-174.361404,1.254157,-3.729801,-0.002554,-0.003450,0.000401,-0.029648,-0.093140,-0.990616,-0.011421,-0.049335,-0.497430
2.218285,0.049424,-0.998313,0.033066,0.008835,-174.371964,1.198054,-3.736120,-0.003464,-0.002542,0.000327,-0.027008,-0.091370,-0.995468,-0.010944,-0.049139,-0.497460
2.228313,0.049453,-0.998316,0.033066,0.008362,-174.366821,1.144032,-3.738667,-0.003148,-0.000700,0.000135,-0.022354,-0.091934,-0.996704,-0.010454,-0.049048,-0.497479
2.238340,0.049576,-0.998312,0.033066,0.008057,-174.351639,1.109587,-3.740272,-0.002481,-0.001068,0.000155,-0.022034,-0.092880,-0.991516,-0.009983,-0.049094,-0.497484
2.248367,0.049789,-0.998302,0.033096,0.007858,-174.326523,1.087853,-3.744607,-0.000353,-0.000111,0.000018,-0.019424,-0.096924,-0.986618,-0.009682,-0.049226,-0.497477
2.258394,0.049942,-0.998293,0.033157,0.007736,-174.308609,1.074814,-3.752141,0.000155,-0.001831,0.000179,-0.022278,-0.097504,-0.977905,-0.009493,-0.049445,-0.497459
2.268421,0.050079,-0.998286,0.033218,0.007538,-174.292267,1.052975,-3.760078,0.001404,-0.002097,0.000183,-0.022537,-0.100082,-0.975967,-0.009379,-0.049600,-0.497446
2.278448,0.050126,-0.998286,0.033219,0.007233,-174.285797,1.018251,-3.761808,0.001336,-0.002837,0.000259,-0.023819,-0.101059,-0.984024,-0.009188,-0.049743,-0.497435
2.288476,0.050125,-0.998289,0.033188,0.006973,-174.284897,0.988385,-3.759735,-0.000068,-0.005571,0.000559,-0.028778,-0.098801,-0.988251,-0.008885,-0.049799,-0.497435
2.298503,0.050049,-0.998298,0.033081,0.006760,-174.292694,0.963058,-3.748814,0.000127,-0.005238,0.000522,-0.027573,-0.099121,-0.987412,-0.008625,-0.049808,-0.497439
2.308530,0.049912,-0.998311,0.032929,0.006577,-174.307648,0.940722,-3.732492,0.000617,-0.003612,0.000351,-0.023804,-0.099609,-0.983917,-0.008404,-0.049740,-0.497449
2.318557,0.049697,-0.998327,0.032806,0.006332,-174.331223,0.911285,-3.720033,0.002287,-0.002660,0.000227,-0.021408,-0.102112,-0.978561,-0.008209,-0.049611,-0.497466
2.328584,0.049332,-0.998352,0.032684,0.005966,-174.371704,0.867344,-3.708457,0.003751,-0.001978,0.000136,-0.019440,-0.103989,-0.972824,-0.007952,-0.049407,-0.497490
2.338611,0.048798,-0.998384,0.032593,0.005447,-174.430969,0.805495,-3.701300,0.004675,-0.000609,-0.000011,-0.015900,-0.104477,-0.966949,-0.007569,-0.049055,-0.497531
2.348640,0.048156,-0.998419,0.032562,0.004837,-174.502243,0.733109,-3.701610,0.008019,-0.000078,-0.000106,-0.013702,-0.109131,-0.959229,-0.007029,-0.048541,-0.497589
2.358666,0.047287,-0.998463,0.032578,0.004242,-174.599716,0.661889,-3.707229,0.007362,-0.004407,0.000330,-0.020874,-0.106628,-0.959061,-0.006397,-0.047923,-0.497658
2.368693,0.046249,-0.998512,0.032638,0.003586,-174.716354,0.583274,-3.718305,0.006671,-0.002020,0.000114,-0.015076,-0.103851,-0.961075,-0.005776,-0.047076,-0.497746
2.378721,0.045029,-0.998568,0.032669,0.003082,-174.854370,0.521276,-3.725122,0.004949,-0.004435,0.000360,-0.018509,-0.098938,-0.965088,-0.005090,-0.046063,-0.497848
2.388747,0.043808,-0.998623,0.032715,0.002655,-174.992752,0.468057,-3.733100,0.004814,-0.003444,0.000266,-0.015747,-0.097717,-0.979034,-0.004549,-0.044864,-0.497963
2.398774,0.042633,-0.998675,0.032684,0.002274,-175.125946,0.419867,-3.732026,0.001905,-0.002331,0.000189,-0.012909,-0.091568,-1.000748,-0.004085,-0.043661,-0.498074
2.408802,0.041641,-0.998719,0.032623,0.002182,-175.239243,0.405393,-3.725874,-0.000183,-0.002949,0.000253,-0.013565,-0.086685,-1.020447,-0.003664,-0.042502,-0.498177
2.418829,0.040863,-0.998751,0.032638,0.002304,-175.328949,0.416526,-3.727318,-0.003238,-0.003249,0.000294,-0.013977,-0.078720,-1.024887,-0.003538,-0.041517,-0.498261
2.428856,0.040237,-0.998773,0.032745,0.002319,-175.400696,0.416435,-3.739769,-0.007965,0.001682,-0.000079,-0.004059,-0.068161,-1.036850,-0.003635,-0.040736,-0.498325
2.438883,0.039841,-0.998782,0.032913,0.002502,-175.446869,0.436678,-3.758372,-0.008013,-0.000400,0.000091,-0.008362,-0.066498,-1.032837,-0.003634,-0.040112,-0.498376
2.448910,0.039581,-0.998786,0.033096,0.002914,-175.478256,0.483678,-3.777571,-0.006892,-0.007304,0.000635,-0.022705,-0.066925,-1.016800,-0.003811,-0.039710,-0.498406
2.458937,0.039322,-0.998789,0.033279,0.003082,-175.508698,0.502734,-3.797940,-0.005328,-0.005799,0.000504,-0.020157,-0.068497,-1.001297,-0.004221,-0.039436,-0.498425
2.468965,0.038910,-0.998799,0.033463,0.003098,-175.556000,0.503736,-3.819098,-0.005060,-0.007922,0.000667,-0.024307,-0.067230,-0.982727,-0.004387,-0.039172,-0.498444
2.478992,0.038345,-0.998816,0.033615,0.003082,-175.620758,0.500492,-3.836882,-0.004978,-0.011230,0.000917,-0.030472,-0.065735,-0.970322,-0.004396,-0.038760,-0.498476
2.489019,0.037613,-0.998841,0.033707,0.002869,-175.703857,0.473628,-3.848687,-0.004320,-0.009813,0.000790,-0.027695,-0.066025,-0.971939,-0.004368,-0.038196,-0.498520
2.499046,0.036758,-0.998872,0.033768,0.002655,-175.800964,0.446142,-3.856974,-0.005950,-0.008865,0.000716,-0.025574,-0.061905,-0.979507,-0.004133,-0.037473,-0.498577
2.509073,0.035782,-0.998908,0.033752,0.002487,-175.912231,0.423093,-3.856307,-0.008632,-0.009848,0.000791,-0.027222,-0.055359,-0.986557,-0.003893,-0.036627,-0.498642
2.519100,0.034775,-0.998948,0.033646,0.002213,-176.026474,0.387348,-3.845608,-0.009855,-0.007797,0.000630,-0.022980,-0.051529,-0.996475,-0.003692,-0.035659,-0.498714
2.529128,0.033829,-0.998987,0.033462,0.001968,-176.133881,0.355048,-3.825902,-0.009888,-0.007617,0.000596,-0.022263,-0.050095,-1.008972,-0.003380,-0.034664,-0.498786
2.539155,0.032883,-0.999028,0.033173,0.001938,-176.241989,0.346849,-3.793160,-0.009427,-0.010106,0.000742,-0.026718,-0.049103,-1.008453,-0.003098,-0.033728,-0.498852
2.549182,0.031876,-0.999074,0.032791,0.001938,-176.357224,0.341637,-3.749785,-0.008674,-0.006356,0.000470,-0.018738,-0.048096,-0.995575,-0.003027,-0.032787,-0.498915
2.559209,0.030868,-0.999121,0.032333,0.001816,-176.472031,0.322261,-3.698039,-0.002075,-0.002656,0.000181,-0.011093,-0.058411,-0.981201,-0.002981,-0.031783,-0.498980
2.569236,0.029953,-0.999164,0.031860,0.001556,-176.575760,0.287559,-3.645047,0.004619,-0.000283,-0.000009,-0.006119,-0.069992,-0.986359,-0.002812,-0.030782,-0.499044
2.579263,0.029159,-0.999199,0.031509,0.001236,-176.665436,0.246802,-3.606075,0.006638,0.002723,-0.000196,0.000443,-0.073425,-1.003128,-0.002509,-0.029878,-0.499100
2.589292,0.028381,-0.999227,0.031342,0.001007,-176.753677,0.217247,-3.587811,0.005686,0.006902,-0.000427,0.009583,-0.069992,-1.004044,-0.002154,-0.029097,-0.499148
2.599318,0.027679,-0.999247,0.031341,0.000900,-176.833725,0.202494,-3.588263,0.002315,0.010509,-0.000605,0.017303,-0.061432,-1.000641,-0.001896,-0.028328,-0.499194
2.609345,0.027069,-0.999264,0.031341,0.000809,-176.903290,0.189821,-3.588675,0.003087,0.008491,-0.000481,0.013657,-0.062271,-1.011887,-0.001767,-0.027630,-0.499233
2.619372,0.026520,-0.999279,0.031311,0.000824,-176.966217,0.189508,-3.585287,0.004926,0.000188,-0.000027,-0.002975,-0.064774,-1.011948,-0.001656,-0.027024,-0.499267
2.629399,0.025909,-0.999300,0.031159,0.000916,-177.036438,0.197349,-3.567608,0.001706,-0.003844,0.000198,-0.011047,-0.056580,-1.002365,-0.001654,-0.026475,-0.499296
2.639427,0.025345,-0.999323,0.030868,0.001114,-177.101761,0.217207,-3.533890,0.003759,-0.002638,0.000124,-0.008698,-0.059036,-0.994949,-0.001722,-0.025863,-0.499328
2.649454,0.024902,-0.999347,0.030441,0.001404,-177.153336,0.247629,-3.484219,0.007272,-0.004082,0.000179,-0.011917,-0.064865,-0.994202,-0.001895,-0.025293,-0.499356
2.659481,0.024658,-0.999366,0.030014,0.001587,-177.181854,0.266538,-3.434754,0.011190,-0.001881,0.000045,-0.008102,-0.072205,-0.999908,-0.002161,-0.024843,-0.499378
2.669508,0.024567,-0.999378,0.029663,0.001556,-177.192108,0.261747,-3.394679,0.012192,0.001446,-0.000128,-0.001755,-0.073715,-0.999863,-0.002326,-0.024595,-0.499389
2.679535,0.024689,-0.999382,0.029480,0.001297,-177.177231,0.231933,-3.374347,0.014027,0.005474,-0.000333,0.006424,-0.077301,-1.000839,-0.002284,-0.024505,-0.499394
2.689562,0.024933,-0.999377,0.029419,0.000900,-177.147888,0.187153,-3.368457,0.014631,0.006623,-0.000386,0.009262,-0.078827,-1.001434,-0.002024,-0.024635,-0.499389
2.699590,0.025299,-0.999368,0.029449,0.000671,-177.105225,0.162261,-3.372516,0.015219,0.002765,-0.000188,0.002274,-0.080063,-0.995621,-0.001633,-0.024891,-0.499378
2.709617,0.025696,-0.999356,0.029510,0.000565,-177.059418,0.151548,-3.379772,0.011990,0.002722,-0.000172,0.002609,-0.074097,-0.992401,-0.001416,-0.025263,-0.499360
2.719644,0.026108,-0.999342,0.029618,0.000549,-177.012146,0.151516,-3.392050,0.008627,0.002542,-0.000153,0.002441,-0.068390,-0.995361,-0.001323,-0.025662,-0.499339
2.729671,0.026551,-0.999324,0.029816,0.000519,-176.961395,0.150125,-3.414805,0.005824,0.000929,-0.000064,-0.000778,-0.063477,-0.993271,-0.001322,-0.026075,-0.499318
2.739698,0.026947,-0.999306,0.030075,0.000427,-176.915680,0.141796,-3.444748,0.002600,0.001384,-0.000080,0.000153,-0.058044,-0.995194,-0.001310,-0.026517,-0.499295
2.749725,0.027268,-0.999288,0.030380,0.000443,-176.879089,0.145599,-3.479624,0.001060,-0.001032,0.000053,-0.004501,-0.055450,-0.989548,-0.001237,-0.026916,-0.499274
2.759753,0.027466,-0.999274,0.030670,0.000717,-176.857422,0.178649,-3.511915,-0.002806,-0.004923,0.000276,-0.012222,-0.048157,-0.984329,-0.001271,-0.027235,-0.499256
2.769779,0.027527,-0.999265,0.030884,0.001083,-176.851746,0.221472,-3.535262,-0.005626,-0.004023,0.000239,-0.011017,-0.042984,-0.984695,-0.001559,-0.027424,-0.499245
2.779807,0.027481,-0.999263,0.030960,0.001434,-176.858185,0.261742,-3.542965,-0.008168,-0.003766,0.000239,-0.011276,-0.038177,-0.987534,-0.001933,-0.027473,-0.499241
2.789834,0.027390,-0.999268,0.030884,0.001648,-176.869446,0.285636,-3.533542,-0.008902,-0.007638,0.000460,-0.019592,-0.036530,-0.985321,-0.002284,-0.027417,-0.499243
2.799861,0.027328,-0.999276,0.030685,0.001450,-176.875717,0.262083,-3.511415,-0.007042,-0.009287,0.000543,-0.023285,-0.040039,-0.986160,-0.002493,-0.027319,-0.499247
2.809888,0.027313,-0.999286,0.030396,0.000778,-176.875015,0.184246,-3.480314,-0.006409,-0.005249,0.000316,-0.014938,-0.041306,-0.989075,-0.002287,-0.027264,-0.499251
2.819916,0.027451,-0.999283,0.030396,-0.000214,-176.855866,0.071150,-3.483387,-0.004336,0.000682,-0.000023,-0.001846,-0.045776,-0.996674,-0.001608,-0.027270,-0.499253
2.829943,0.027817,-0.999243,0.031326,-0.001266,-176.810181,-0.045163,-3.593424,-0.003118,0.015119,-0.000827,0.029388,-0.049225,-1.010696,-0.000621,-0.027437,-0.499246
2.839970,0.028778,-0.999161,0.032990,-0.001923,-176.697540,-0.111340,-3.786249,0.003654,0.030372,-0.001691,0.063660,-0.064972,-1.029633,0.000394,-0.027836,-0.499225
2.849997,0.030639,-0.999054,0.034545,-0.001526,-176.485794,-0.053396,-3.963382,0.018393,0.008930,-0.000480,0.020935,-0.099609,-1.051559,0.000972,-0.028817,-0.499168
2.860024,0.032974,-0.998941,0.035675,-0.000732,-176.221558,0.050959,-4.089944,0.017105,-0.013719,0.000859,-0.027985,-0.100571,-1.049118,0.000466,-0.030663,-0.499059
2.870051,0.035202,-0.998838,0.036423,-0.000412,-175.967743,0.099768,-4.174235,-0.004752,-0.017382,0.001153,-0.036957,-0.058380,-1.032654,-0.000445,-0.032965,-0.498912
2.880078,0.037110,-0.998757,0.036728,-0.000748,-175.747833,0.070613,-4.210483,-0.017341,-0.020527,0.001478,-0.043060,-0.035797,-1.002411,-0.000871,-0.035176,-0.498761
2.890106,0.038620,-0.998702,0.036652,-0.001511,-175.571625,-0.010677,-4.204969,-0.011339,-0.029095,0.002178,-0.057907,-0.049988,-0.969116,-0.000616,-0.037091,-0.498622
2.900133,0.039353,-0.998684,0.036271,-0.002884,-175.481934,-0.166479,-4.167526,-0.009621,-0.023569,0.001824,-0.044327,-0.054581,-0.938873,0.000093,-0.038625,-0.498506
2.910159,0.038742,-0.998734,0.035416,-0.004211,-175.546616,-0.324757,-4.075397,-0.004054,-0.013965,0.001092,-0.023254,-0.065491,-0.923676,0.001453,-0.039406,-0.498443
2.920187,0.036483,-0.998861,0.034225,-0.004318,-175.805359,-0.351182,-3.938667,0.022591,-0.013453,0.001177,-0.019104,-0.109741,-0.887894,0.002834,-0.038842,-0.498481
2.930214,0.032608,-0.999026,0.033371,-0.003677,-176.252121,-0.296290,-3.836918,0.013312,-0.008319,0.000692,-0.009384,-0.088516,-0.883286,0.003065,-0.036590,-0.498650
2.940241,0.027954,-0.999187,0.032821,-0.003326,-176.786697,-0.275729,-3.771372,0.015670,0.022332,-0.001382,0.046356,-0.089691,-0.923462,0.002586,-0.032699,-0.498923
2.950269,0.023605,-0.999308,0.032516,-0.003510,-177.284103,-0.313927,-3.735710,0.015354,0.014209,-0.000724,0.033096,-0.086258,-0.990860,0.002406,-0.028040,-0.499208
2.960296,0.020203,-0.999387,0.032333,-0.004059,-177.671768,-0.389972,-3.714930,0.000270,-0.004385,0.000210,-0.003479,-0.050629,-1.054749,0.002740,-0.023703,-0.499430
2.970323,0.017899,-0.999437,0.032028,-0.004730,-177.933258,-0.476054,-3.680460,-0.013551,-0.003980,0.000070,-0.001251,-0.014740,-1.086868,0.003403,-0.020321,-0.499575
2.980350,0.016739,-0.999468,0.031677,-0.004898,-178.065628,-0.500218,-3.639946,-0.016036,-0.004294,0.000022,-0.000305,-0.004425,-1.100220,0.004154,-0.018040,-0.499657
2.990377,0.016479,-0.999477,0.031570,-0.004501,-178.096817,-0.455932,-3.626836,-0.013010,-0.000134,-0.000109,0.009201,-0.008438,-1.086548,0.004365,-0.016885,-0.499696
3.000405,0.016998,-0.999458,0.031983,-0.003952,-178.039215,-0.390331,-3.673250,-0.010335,0.012811,-0.000508,0.035583,-0.013306,-1.059052,0.003979,-0.016613,-0.499708
3.010432,0.018326,-0.999412,0.032745,-0.003265,-177.889526,-0.305200,-3.759713,-0.010312,0.015301,-0.000594,0.038742,-0.014084,-1.034729,0.003406,-0.017116,-0.499695
3.020459,0.020538,-0.999343,0.033554,-0.002853,-177.637512,-0.247791,-3.852138,-0.006820,0.003172,-0.000153,0.012024,-0.023911,-1.029633,0.002663,-0.018422,-0.499654
3.030486,0.023483,-0.999254,0.034256,-0.003311,-177.298294,-0.286967,-3.934570,-0.004153,-0.009042,0.000355,-0.014160,-0.033890,-1.028091,0.002162,-0.020621,-0.499570
3.040513,0.027008,-0.999144,0.034713,-0.004593,-176.889435,-0.418420,-3.991977,-0.006486,-0.008158,0.000353,-0.011520,-0.034821,-1.017471,0.002504,-0.023579,-0.499438
3.050539,0.030823,-0.999020,0.034790,-0.006454,-176.444962,-0.616034,-4.009023,-0.010019,-0.015594,0.000775,-0.024139,-0.034576,-1.008347,0.003651,-0.027144,-0.499250
3.060568,0.034027,-0.998919,0.034424,-0.007874,-176.072418,-0.767063,-3.974664,-0.009154,-0.016889,0.000951,-0.022980,-0.043549,-0.994431,0.005376,-0.031017,-0.499008
3.070595,0.035492,-0.998886,0.033874,-0.007965,-175.904663,-0.773968,-3.913196,0.008938,-0.002432,0.000287,0.007919,-0.080490,-0.928665,0.006694,-0.034261,-0.498780
3.080621,0.035386,-0.998899,0.033539,-0.008164,-175.916336,-0.798472,-3.875513,0.020775,0.014080,-0.000727,0.038712,-0.104752,-0.922195,0.006754,-0.035722,-0.498677
3.090649,0.034821,-0.998918,0.033493,-0.008423,-175.980072,-0.830532,-3.870832,0.024603,0.015106,-0.000735,0.042587,-0.115936,-0.956879,0.006968,-0.035620,-0.498681
3.100676,0.034713,-0.998923,0.033554,-0.008118,-175.993500,-0.795760,-3.876456,0.001425,0.012840,-0.000882,0.041367,-0.075012,-1.025085,0.007248,-0.035065,-0.498717
3.110702,0.035416,-0.998908,0.033386,-0.007538,-175.915436,-0.727361,-3.855437,-0.014689,0.009382,-0.000862,0.034882,-0.043243,-1.065125,0.006944,-0.034948,-0.498729
3.120731,0.036743,-0.998866,0.033127,-0.007980,-175.761856,-0.773984,-3.828525,-0.003747,-0.003370,0.000193,0.006470,-0.069382,-1.085464,0.006347,-0.035629,-0.498689
3.130758,0.038116,-0.998794,0.032989,-0.010651,-175.594208,-1.074970,-3.825788,-0.006438,0.001814,-0.000222,0.018723,-0.066666,-1.089172,0.006754,-0.036966,-0.498586
3.140785,0.039733,-0.998661,0.033142,-0.015594,-175.389145,-1.633906,-3.868183,-0.004667,0.016486,-0.001359,0.055038,-0.071655,-1.058533,0.009380,-0.038422,-0.498434
3.150812,0.041534,-0.998453,0.033767,-0.021698,-175.156631,-2.322433,-3.973133,-0.005130,0.016156,-0.001450,0.062729,-0.072144,-1.025482,0.014257,-0.040197,-0.498178
3.160839,0.043121,-0.998180,0.034988,-0.028228,-174.943283,-3.057397,-4.151015,-0.015820,0.014730,-0.001893,0.068741,-0.051636,-0.976440,0.020262,-0.042202,-0.497804
3.170866,0.043853,-0.997871,0.036803,-0.034927,-174.822281,-3.811638,-4.397918,-0.018553,0.023619,-0.003086,0.094818,-0.047684,-0.935059,0.026668,-0.044030,-0.497344
3.180894,0.043364,-0.997508,0.039259,-0.042433,-174.830795,-4.660421,-4.719364,-0.023005,0.026407,-0.003933,0.108627,-0.039658,-0.901657,0.033238,-0.045045,-0.496857
3.190921,0.041517,-0.997074,0.042174,-0.050855,-174.982574,-5.618909,-5.091657,-0.029041,0.018215,-0.004026,0.103882,-0.027573,-0.874146,0.040625,-0.044922,-0.496319
3.200948,0.038343,-0.996557,0.045698,-0.059674,-175.274246,-6.628565,-5.526153,-0.032131,0.020747,-0.004996,0.118011,-0.018707,-0.836700,0.048956,-0.043541,-0.495690
3.210975,0.033552,-0.995959,0.050290,-0.068249,-175.738037,-7.618171,-6.066675,-0.052170,0.079041,-0.012621,0.227051,0.021561,-0.803528,0.057716,-0.040938,-0.494969
3.221002,0.027708,-0.995365,0.055539,-0.075115,-176.321167,-8.421561,-6.659886,-0.012901,0.105554,-0.009600,0.289795,-0.037491,-0.801621,0.066285,-0.036849,-0.494216
3.231029,0.021514,-0.994843,0.060758,-0.079861,-176.954041,-8.991264,-7.231068,0.041734,0.041786,0.003503,0.197372,-0.127106,-0.835114,0.073228,-0.031752,-0.493590
3.241057,0.014999,-0.994379,0.065656,-0.083188,-177.633713,-9.408419,-7.751870,0.023464,0.002153,0.003603,0.141617,-0.088409,-0.869354,0.078142,-0.026255,-0.493159
3.251084,0.008346,-0.993984,0.070142,-0.085156,-178.341873,-9.678366,-8.215395,-0.001539,-0.003370,-0.000116,0.138962,-0.033386,-0.874466,0.081735,-0.020376,-0.492855
3.261111,0.001694,-0.993595,0.074339,-0.086515,-179.056595,-9.884922,-8.641293,0.001469,0.002953,0.000165,0.156509,-0.028336,-0.885712,0.084059,-0.014269,-0.492679
3.271138,-0.004501,-0.993102,0.078550,-0.088330,-179.712830,-10.145548,-9.072569,0.025101,0.012133,0.004175,0.185898,-0.063889,-0.932053,0.085835,-0.008114,-0.492512
3.281165,-0.009811,-0.992459,0.082884,-0.091124,179.745529,-10.515389,-9.526779,0.038451,0.021907,0.006771,0.224442,-0.085220,-0.998840,0.088075,-0.002468,-0.492178
3.291192,-0.014145,-0.991646,0.087263,-0.095228,179.332932,-11.030601,-9.996000,0.030605,0.027230,0.005802,0.253601,-0.062378,-1.044998,0.091250,0.002185,-0.491600
3.301220,-0.016739,-0.990673,0.090971,-0.101271,179.137802,-11.753263,-10.407077,0.012333,0.007687,0.002494,0.241959,-0.016113,-1.146912,0.095667,0.005717,-0.490732
3.311247,-0.017395,-0.989760,0.094572,-0.106642,179.163757,-12.379733,-10.828167,0.026669,-0.067864,0.004528,0.095779,-0.054855,-1.386398,0.101849,0.007370,-0.489464
3.321273,-0.017273,-0.989054,0.098327,-0.109771,179.261353,-12.740504,-11.275173,0.002154,-0.015978,0.000239,0.228134,0.012390,-1.225128,0.107195,0.007131,-0.488325
3.331301,-0.016373,-0.988465,0.101471,-0.112320,179.437286,-13.024728,-11.661006,0.006129,0.001583,0.001406,0.259964,0.000000,-1.132980,0.110268,0.006290,-0.487652
3.341328,-0.015320,-0.987736,0.104674,-0.115889,179.646606,-13.423266,-12.059955,0.030044,-0.010530,0.006847,0.238220,-0.060684,-1.138672,0.112686,0.004787,-0.487116
3.351355,-0.014526,-0.986703,0.108228,-0.121396,179.858994,-14.046445,-12.504873,0.008142,0.024281,0.002093,0.297546,-0.011520,-1.023804,0.116071,0.003001,-0.486335
3.361383,-0.013641,-0.985625,0.111753,-0.126936,-179.912338,-14.671152,-12.952051,-0.014677,0.014584,-0.003636,0.279099,0.033615,-0.991745,0.121354,0.001194,-0.485052
3.371409,-0.012512,-0.984698,0.114867,-0.131392,-179.671066,-15.167192,-13.354295,0.001663,-0.037266,0.000492,0.182800,-0.005005,-0.996170,0.126635,-0.000740,-0.483701
3.381437,-0.011383,-0.983870,0.117460,-0.135343,-179.441315,-15.604425,-13.696157,0.005068,-0.067730,0.001763,0.126373,-0.015930,-0.975311,0.130818,-0.002772,-0.482580
3.391464,-0.010529,-0.983033,0.119721,-0.139450,-179.243744,-16.062693,-13.997579,-0.006177,-0.068564,-0.001056,0.128662,0.003021,-0.948456,0.134497,-0.004698,-0.481553
3.401490,-0.009979,-0.982173,0.121595,-0.143857,-179.080963,-16.559555,-14.252162,-0.021568,-0.066736,-0.005329,0.136169,0.029709,-0.923142,0.138345,-0.006345,-0.480443
3.411518,-0.009338,-0.981451,0.122893,-0.147673,-178.924164,-16.987507,-14.438680,-0.031184,-0.078663,-0.008011,0.125885,0.047470,-0.956162,0.142506,-0.007691,-0.479206
3.421546,-0.008057,-0.980904,0.123626,-0.150740,-178.712265,-17.320463,-14.566333,-0.037486,-0.094832,-0.009672,0.112350,0.063843,-1.061417,0.146082,-0.008983,-0.478105
3.431572,-0.006134,-0.980190,0.124267,-0.154891,-178.408005,-17.768408,-14.703242,-0.023689,-0.083618,-0.005509,0.153473,0.031403,-1.136642,0.148858,-0.010733,-0.477212
3.441600,-0.004105,-0.979151,0.125076,-0.160766,-178.057526,-18.412418,-14.877574,-0.014501,-0.045602,-0.003381,0.240875,0.003677,-1.082825,0.152585,-0.013235,-0.475971
3.451627,-0.002655,-0.977954,0.126219,-0.167066,-177.758148,-19.113276,-15.089724,-0.030748,-0.012796,-0.009808,0.298920,0.033203,-0.980484,0.157927,-0.016089,-0.474138
3.461653,-0.001785,-0.976704,0.127499,-0.173305,-177.521545,-19.815350,-15.311579,-0.030579,-0.004795,-0.010417,0.303925,0.026382,-0.904312,0.163718,-0.018491,-0.472082
3.471681,-0.001358,-0.975445,0.128568,-0.179501,-177.338837,-20.520069,-15.502895,-0.022438,-0.028380,-0.006863,0.264206,0.005768,-0.887604,0.169495,-0.020353,-0.469962
3.481709,-0.001419,-0.974343,0.129256,-0.184905,-177.233887,-21.142466,-15.633818,-0.020987,-0.067094,-0.004743,0.198532,-0.000427,-0.872376,0.175268,-0.021753,-0.467778
3.491736,-0.002060,-0.973364,0.129592,-0.189757,-177.214645,-21.711809,-15.705604,-0.028703,-0.084035,-0.007050,0.173950,0.012482,-0.856934,0.180344,-0.022517,-0.465808
3.501763,-0.002960,-0.972379,0.129575,-0.194744,-177.231537,-22.302563,-15.730496,-0.031214,-0.078907,-0.008603,0.198196,0.017914,-0.883469,0.184969,-0.022586,-0.463988
3.511790,-0.003693,-0.971388,0.129364,-0.199752,-177.232285,-22.894114,-15.736008,-0.028424,-0.062328,-0.008657,0.251160,0.014221,-0.927048,0.189749,-0.022356,-0.462066
3.521817,-0.004013,-0.970337,0.129074,-0.204971,-177.181030,-23.504334,-15.744686,-0.023273,-0.036076,-0.008094,0.326431,0.004837,-0.960114,0.194515,-0.022254,-0.460085
3.531844,-0.004089,-0.969069,0.128551,-0.211205,-177.086563,-24.229733,-15.742495,-0.018448,-0.023641,-0.006868,0.370712,-0.006042,-0.974976,0.199409,-0.022562,-0.457971
3.541872,-0.004150,-0.967517,0.127913,-0.218579,-176.970749,-25.088642,-15.740854,-0.015074,-0.023770,-0.005582,0.383423,-0.014923,-0.971848,0.205198,-0.023188,-0.455376
3.551899,-0.004455,-0.965947,0.127560,-0.225610,-176.882126,-25.912104,-15.767258,-0.023909,-0.000320,-0.011192,0.429337,0.004959,-0.917282,0.212010,-0.023944,-0.452206
3.561926,-0.005096,-0.964400,0.127163,-0.232338,-176.840790,-26.707090,-15.777363,-0.024418,0.032099,-0.013630,0.480499,0.006790,-0.844833,0.218496,-0.024475,-0.449080
3.571952,-0.005646,-0.962802,0.126677,-0.239117,-176.788986,-27.508221,-15.781277,0.006064,0.011731,0.002407,0.451675,-0.059799,-0.846283,0.224715,-0.024630,-0.445993
3.581980,-0.005981,-0.961184,0.126171,-0.245797,-176.712341,-28.295591,-15.789781,0.023142,0.011428,0.011428,0.463455,-0.097626,-0.840866,0.230938,-0.024855,-0.442791
3.592007,-0.006271,-0.959433,0.125485,-0.252877,-176.626556,-29.131248,-15.784089,0.032002,0.012464,0.016540,0.468018,-0.116135,-0.818039,0.237010,-0.025263,-0.439548
3.602035,-0.006759,-0.957474,0.124630,-0.260597,-176.557282,-30.047222,-15.761099,0.042918,0.011416,0.023286,0.466003,-0.138046,-0.791214,0.243406,-0.025716,-0.436014
3.612062,-0.007461,-0.955486,0.123760,-0.268179,-176.517792,-30.952593,-15.729178,0.039998,0.022783,0.021806,0.482574,-0.128662,-0.750732,0.250357,-0.026006,-0.432044
3.622089,-0.008026,-0.953595,0.122709,-0.275279,-176.477386,-31.801535,-15.673308,0.034043,0.031414,0.018541,0.506958,-0.116226,-0.733902,0.257164,-0.026061,-0.428025
3.632115,-0.008224,-0.951677,0.121458,-0.282375,-176.397568,-32.646698,-15.605963,0.042757,0.010799,0.025896,0.503555,-0.141586,-0.772385,0.263489,-0.026126,-0.424157
3.642143,-0.007934,-0.949750,0.120235,-0.289312,-176.256546,-33.466904,-15.560482,0.036395,0.003516,0.023141,0.521408,-0.133850,-0.799713,0.269729,-0.026470,-0.420197
3.652170,-0.007233,-0.947920,0.118955,-0.295786,-176.073151,-34.227753,-15.519470,-0.001652,-0.004493,-0.000800,0.559952,-0.052353,-0.862061,0.275728,-0.027250,-0.416236
3.662199,-0.005997,-0.945971,0.117567,-0.302532,-175.816254,-35.014404,-15.493834,-0.005054,-0.030640,-0.001341,0.549408,-0.050217,-0.922806,0.281242,-0.028329,-0.412458
3.672225,-0.004639,-0.943653,0.116177,-0.310233,-175.518188,-35.914871,-15.495054,0.005373,-0.036458,0.006442,0.551086,-0.081589,-0.921310,0.286891,-0.029895,-0.408439
3.682252,-0.003311,-0.941162,0.114758,-0.318242,-175.213791,-36.855221,-15.503952,0.004197,-0.019421,0.004572,0.576599,-0.078461,-0.862579,0.293291,-0.031665,-0.403734
3.692280,-0.001816,-0.938459,0.113275,-0.326659,-174.874542,-37.844666,-15.527905,0.007990,-0.007263,0.006618,0.590012,-0.087891,-0.808746,0.299898,-0.033404,-0.398711
3.702307,-0.000229,-0.935387,0.111629,-0.335909,-174.502991,-38.936642,-15.560270,0.025854,-0.011097,0.021161,0.588043,-0.136230,-0.789871,0.306761,-0.035298,-0.393291
3.712333,0.001419,-0.932224,0.109675,-0.345215,-174.129089,-40.040077,-15.565608,0.032231,-0.019039,0.027993,0.582199,-0.156662,-0.776901,0.314230,-0.037283,-0.387165
3.722362,0.002807,-0.929150,0.107508,-0.354062,-173.807831,-41.098015,-15.528309,0.031471,-0.021189,0.028762,0.574921,-0.155182,-0.743393,0.321662,-0.039184,-0.380825
3.732389,0.003662,-0.926273,0.105420,-0.362126,-173.574448,-42.073547,-15.464396,0.032952,-0.004751,0.029425,0.589813,-0.155121,-0.685547,0.328675,-0.040673,-0.374633
3.742415,0.004211,-0.923806,0.103589,-0.368888,-173.404678,-42.897495,-15.394729,0.014991,0.011409,0.012332,0.631012,-0.112228,-0.663284,0.335042,-0.041567,-0.368851
3.752442,0.004669,-0.921603,0.102080,-0.374766,-173.253571,-43.615685,-15.348207,-0.016059,-0.004582,-0.014489,0.668945,-0.040619,-0.728577,0.340344,-0.042103,-0.363904
3.762470,0.005020,-0.919215,0.101011,-0.380866,-173.082977,-44.361431,-15.370067,-0.023443,-0.007617,-0.021588,0.744980,-0.023483,-0.800705,0.344909,-0.042559,-0.359529
3.772497,0.005401,-0.916389,0.100263,-0.387807,-172.858063,-45.208988,-15.469939,-0.013748,0.008011,-0.014514,0.819397,-0.053223,-0.805512,0.349591,-0.043086,-0.354916
3.782525,0.005951,-0.913195,0.099820,-0.395374,-172.561173,-46.130348,-15.652977,-0.010859,0.006232,-0.011804,0.830689,-0.064224,-0.798096,0.354841,-0.043833,-0.349576
3.792552,0.006469,-0.909717,0.099589,-0.403362,-172.229355,-47.105003,-15.892038,-0.011589,-0.002078,-0.011885,0.787415,-0.062027,-0.756989,0.360459,-0.044900,-0.343644
3.802579,0.006927,-0.906176,0.099423,-0.411288,-171.890671,-48.075035,-16.150135,-0.006572,-0.017238,-0.004784,0.725998,-0.077927,-0.716553,0.366301,-0.046056,-0.337257
3.812605,0.007507,-0.902565,0.099300,-0.419172,-171.516434,-49.040077,-16.438267,0.000577,-0.022331,0.003833,0.700043,-0.098877,-0.681412,0.372010,-0.047169,-0.330794
3.822633,0.008163,-0.898864,0.099316,-0.427033,-171.103622,-50.002125,-16.771614,0.000140,-0.019746,0.003110,0.705460,-0.098404,-0.656433,0.377584,-0.048399,-0.324239
3.832660,0.008636,-0.895299,0.099378,-0.434436,-170.716919,-50.912407,-17.100859,0.000943,-0.007629,0.002332,0.729553,-0.100632,-0.624100,0.383034,-0.049749,-0.317576
3.842687,0.008804,-0.891909,0.099530,-0.441316,-170.377991,-51.764595,-17.418530,-0.006242,-0.004318,-0.007079,0.766586,-0.082443,-0.625732,0.388091,-0.050905,-0.311191
3.852715,0.008911,-0.888214,0.099896,-0.448623,-169.995224,-52.670963,-17.802944,-0.013785,-0.009211,-0.016178,0.805801,-0.063522,-0.650436,0.392737,-0.051777,-0.305163
3.862742,0.009155,-0.884157,0.100323,-0.456467,-169.536636,-53.643147,-18.255806,-0.008029,-0.015068,-0.008028,0.811996,-0.086639,-0.649475,0.397583,-0.052730,-0.298658
3.872768,0.009491,-0.880041,0.100459,-0.464319,-169.061401,-54.620209,-18.693255,0.002151,-0.022457,0.007122,0.761688,-0.119278,-0.606186,0.402670,-0.053889,-0.291554
3.882796,0.009842,-0.875932,0.100323,-0.472045,-168.588104,-55.586884,-19.105227,0.007338,-0.019109,0.014217,0.724854,-0.129807,-0.548569,0.407666,-0.054997,-0.284318
3.892823,0.010528,-0.871750,0.099987,-0.479780,-168.046432,-56.552513,-19.541218,0.012179,-0.004684,0.019078,0.759323,-0.146149,-0.520630,0.412492,-0.055978,-0.277076
3.902850,0.011947,-0.867479,0.099392,-0.487548,-167.364777,-57.511642,-20.034683,0.013039,-0.013567,0.023045,0.785446,-0.160950,-0.539169,0.417196,-0.057150,-0.269700
3.912878,0.014129,-0.863198,0.098537,-0.495202,-166.539337,-58.444206,-20.587658,0.014721,-0.018243,0.027776,0.799835,-0.176132,-0.539581,0.421750,-0.058823,-0.262154
3.922905,0.016738,-0.858608,0.097393,-0.503261,-165.590088,-59.423084,-21.205341,0.013896,-0.011882,0.026104,0.811279,-0.175873,-0.511932,0.426065,-0.060992,-0.254575
3.932931,0.018920,-0.853273,0.096171,-0.512410,-164.588135,-60.553097,-21.905237,0.006854,-0.004452,0.013117,0.804764,-0.147247,-0.470490,0.430474,-0.063386,-0.246449
3.942959,0.020339,-0.847612,0.094964,-0.521890,-163.633911,-61.745960,-22.623989,0.005047,0.012086,0.005933,0.777664,-0.128891,-0.398911,0.435406,-0.065423,-0.237079
3.952985,0.021285,-0.842320,0.093745,-0.530568,-162.777298,-62.851181,-23.286480,0.000521,0.010528,-0.002086,0.800720,-0.117188,-0.391602,0.440429,-0.066800,-0.227217
3.963013,0.022079,-0.837490,0.092602,-0.538324,-161.970764,-63.843403,-23.920725,-0.005824,-0.003041,-0.010940,0.881012,-0.109650,-0.438538,0.444912,-0.067667,-0.218045
3.973041,0.023040,-0.832630,0.091412,-0.545972,-161.084854,-64.819656,-24.618124,-0.002789,-0.012657,-0.001844,0.940048,-0.138794,-0.469147,0.448796,-0.068340,-0.209720
3.983068,0.023772,-0.827696,0.090161,-0.553598,-160.192322,-65.802025,-25.337229,0.001631,-0.022378,0.011343,0.919922,-0.166580,-0.460938,0.452487,-0.069092,-0.201384
3.993094,0.023757,-0.822542,0.089001,-0.561412,-159.356491,-66.830017,-26.069941,0.003163,-0.008956,0.010706,0.886932,-0.158417,-0.394577,0.456067,-0.069589,-0.192964
4.003121,0.023070,-0.816819,0.087947,-0.569900,-158.483292,-67.964539,-26.904596,0.000998,0.006066,0.000202,0.895081,-0.135773,-0.345993,0.459671,-0.069508,-0.184252
4.013148,0.022063,-0.810697,0.086970,-0.578762,-157.511444,-69.157829,-27.871305,-0.002307,0.011898,-0.010819,0.907211,-0.112412,-0.317093,0.463476,-0.068965,-0.174682
4.023176,0.020965,-0.804653,0.086025,-0.587316,-156.482697,-70.315750,-28.906162,-0.000659,0.017408,-0.009088,0.915085,-0.114822,-0.286270,0.467282,-0.068221,-0.164548
4.033204,0.019988,-0.798962,0.084851,-0.595236,-155.451355,-71.396622,-29.916143,0.002308,0.011090,0.002194,0.909012,-0.134598,-0.275955,0.470782,-0.067393,-0.154621
4.043231,0.019088,-0.793426,0.083447,-0.602821,-154.381454,-72.439972,-30.940794,0.000178,-0.012010,0.006076,0.903900,-0.139145,-0.301544,0.473875,-0.066476,-0.145295
4.053257,0.018111,-0.787736,0.082211,-0.610435,-153.144470,-73.484940,-32.153820,-0.001769,-0.008705,-0.002009,0.938004,-0.124619,-0.286133,0.476701,-0.065449,-0.136243
4.063284,0.017303,-0.781948,0.081234,-0.617984,-151.635147,-74.504585,-33.648327,-0.003657,0.006277,-0.016985,1.015488,-0.099289,-0.255356,0.479373,-0.064452,-0.127041
4.073311,0.016815,-0.776111,0.080518,-0.625405,-149.774445,-75.479813,-35.491020,-0.005286,-0.001903,-0.020592,1.079269,-0.095062,-0.268265,0.481826,-0.063731,-0.117796
4.083339,0.016463,-0.770214,0.080166,-0.632708,-147.534988,-76.409592,-37.733173,-0.004547,-0.002687,-0.018699,1.105133,-0.100784,-0.254242,0.484030,-0.063406,-0.108586
4.093367,0.016250,-0.764605,0.079862,-0.639518,-145.092972,-77.254791,-40.171913,-0.003448,-0.001863,-0.015669,1.106339,-0.107727,-0.230652,0.486000,-0.063402,-0.099410
4.103394,0.015808,-0.759575,0.079542,-0.645534,-142.738739,-78.000122,-42.541389,-0.003586,-0.006275,-0.014881,1.062241,-0.105118,-0.211670,0.487680,-0.063498,-0.090753
4.113420,0.015243,-0.754529,0.079115,-0.651489,-140.165024,-78.731903,-45.133080,-0.003834,-0.016826,-0.009742,1.019562,-0.111237,-0.209091,0.489074,-0.063354,-0.083036
4.123447,0.014297,-0.749560,0.078536,-0.657292,-137.490891,-79.455421,-47.845402,-0.004805,-0.019855,-0.014659,0.983810,-0.096390,-0.191895,0.490362,-0.063044,-0.075329
4.133475,0.013229,-0.744642,0.077696,-0.662979,-134.608322,-80.166481,-50.757019,-0.003986,-0.016146,-0.014063,0.963211,-0.094070,-0.165024,0.491556,-0.062337,-0.067764
4.143502,0.012024,-0.739808,0.076720,-0.668505,-131.476471,-80.853355,-53.919735,-0.005274,-0.029946,-0.012617,0.943008,-0.092789,-0.173935,0.492654,-0.061362,-0.060284
4.153530,0.010711,-0.734849,0.075833,-0.674075,-127.798195,-81.517860,-57.648594,-0.004302,-0.025670,-0.010926,0.965439,-0.095963,-0.154648,0.493642,-0.060183,-0.052957
4.163557,0.009536,-0.729906,0.074948,-0.679539,-123.543686,-82.125481,-61.944275,-0.002478,-0.017340,-0.004449,0.999374,-0.110092,-0.127487,0.494531,-0.058988,-0.045508
4.173584,0.008652,-0.725170,0.074018,-0.684704,-118.829857,-82.645363,-66.672768,-0.002966,-0.025087,-0.000436,1.020584,-0.118378,-0.131012,0.495285,-0.057891,-0.038136
4.183610,0.008011,-0.720676,0.072997,-0.689549,-113.762344,-83.078812,-71.727333,-0.001863,-0.016181,-0.000071,1.032104,-0.118393,-0.098770,0.495886,-0.056955,-0.031105
4.193637,0.007553,-0.716736,0.071959,-0.693757,-108.847290,-83.410629,-76.611435,-0.001094,-0.005995,-0.008456,1.024963,-0.098297,-0.062958,0.496356,-0.056108,-0.024459
4.203666,0.007721,-0.712725,0.071486,-0.697924,-103.292267,-83.591614,-82.125763,-0.000348,0.000260,-0.010035,1.040588,-0.094818,-0.038513,0.496697,-0.055335,-0.018644
4.213693,0.008758,-0.708710,0.071700,-0.701966,-97.467896,-83.578102,-87.885826,-0.000117,-0.001564,0.002213,1.117981,-0.129654,-0.032440,0.496876,-0.055395,-0.012842
4.223720,0.010391,-0.705455,0.072203,-0.705165,-92.830154,-83.424988,-92.427971,-0.001757,-0.015922,0.003795,1.116547,-0.135651,-0.052185,0.496863,-0.056538,-0.007167
4.233747,0.012192,-0.702455,0.072724,-0.708070,-88.789978,-83.217278,-96.355911,-0.003219,-0.027607,0.003392,1.073318,-0.133255,-0.065887,0.496711,-0.058245,-0.002635
4.243773,0.013565,-0.698863,0.073194,-0.711543,-84.218719,-83.004898,-100.846878,-0.001706,-0.014193,-0.003497,1.032440,-0.117569,-0.026550,0.496501,-0.060058,0.001512
4.253800,0.014297,-0.694573,0.073455,-0.715691,-78.978615,-82.792168,-106.038635,0.000737,0.004344,-0.015164,0.971024,-0.090652,0.021210,0.496278,-0.061561,0.006477
4.263828,0.014633,-0.690020,0.073409,-0.720079,-73.638084,-82.563675,-111.337074,-0.000213,-0.005947,-0.021416,0.917572,-0.075867,0.011932,0.496049,-0.062502,0.012417
4.273856,0.015106,-0.685009,0.072843,-0.724895,-68.045921,-82.272461,-116.831314,-0.003360,-0.032675,-0.020900,0.889862,-0.075333,-0.025269,0.495795,-0.062957,0.018728
4.283882,0.016235,-0.678641,0.072049,-0.730915,-61.722454,-81.776787,-122.979523,-0.008328,-0.060420,0.012089,0.896271,-0.136414,-0.064331,0.495459,-0.063151,0.025701
4.293910,0.017638,-0.670997,0.071148,-0.737995,-55.210590,-81.068420,-129.282578,-0.008123,-0.045211,0.033057,0.892380,-0.175598,-0.020889,0.494859,-0.063680,0.034501
4.303936,0.019087,-0.663042,0.069865,-0.745236,-49.389439,-80.257431,-134.862000,-0.003982,-0.013088,0.025024,0.888153,-0.161514,0.056854,0.493937,-0.064342,0.044947
4.313963,0.021239,-0.655591,0.068142,-0.751899,-44.825832,-79.414352,-139.094894,-0.004802,-0.015245,0.024756,0.902771,-0.164810,0.073639,0.492789,-0.064722,0.055741
4.323991,0.025145,-0.649019,0.066083,-0.757641,-41.739590,-78.557404,-141.684921,-0.011529,-0.058982,0.027709,0.996536,-0.189285,0.011734,0.491491,-0.065160,0.065803
4.334018,0.030654,-0.643821,0.063779,-0.762058,-40.005955,-77.781494,-142.775909,-0.012859,-0.074714,0.017973,1.118301,-0.193115,-0.002670,0.490062,-0.066387,0.074653
4.344046,0.036787,-0.639009,0.061276,-0.766032,-38.706112,-77.031609,-143.367188,-0.008860,-0.048186,0.012695,1.119354,-0.186081,0.074936,0.488674,-0.068339,0.081671
4.354073,0.042494,-0.633676,0.058454,-0.770375,-37.131706,-76.256165,-144.240677,0.000375,0.005164,0.002053,1.012573,-0.150787,0.194244,0.487247,-0.070447,0.088159
4.364100,0.047407,-0.627272,0.054822,-0.775579,-34.913269,-75.420654,-145.755707,0.010326,0.053328,-0.012359,0.869888,-0.105545,0.271362,0.485684,-0.071959,0.095283
4.374126,0.051740,-0.619608,0.050397,-0.781739,-32.182541,-74.478058,-147.763641,0.010114,0.041784,-0.018068,0.798645,-0.087906,0.243759,0.483900,-0.072256,0.103771
4.384153,0.055812,-0.610913,0.045513,-0.788572,-29.300251,-73.418991,-149.905457,0.005407,0.026434,-0.006294,0.801880,-0.107925,0.235641,0.481764,-0.071455,0.113792
4.394181,0.059657,-0.601393,0.040433,-0.795851,-26.467781,-72.253639,-151.998062,0.000868,0.028234,0.012486,0.815186,-0.141693,0.263763,0.479209,-0.069987,0.124961
4.404209,0.063548,-0.591704,0.035382,-0.803021,-23.947804,-71.050415,-153.775269,-0.000853,0.019712,0.012763,0.845673,-0.145050,0.280548,0.476208,-0.068056,0.136938
4.414236,0.067714,-0.582691,0.030393,-0.809450,-21.875277,-69.917961,-155.086121,0.004152,-0.007293,-0.016422,0.961639,-0.099228,0.287201,0.472902,-0.066014,0.148882
4.424263,0.072062,-0.574541,0.025633,-0.815046,-20.207096,-68.885078,-155.995087,0.005432,-0.023395,-0.025343,1.025116,-0.082123,0.295548,0.469601,-0.064058,0.159795
4.434289,0.076366,-0.567461,0.021422,-0.819721,-18.932716,-67.979149,-156.557922,0.001637,-0.021418,-0.012376,1.020905,-0.107819,0.321610,0.466430,-0.062294,0.169493
4.444316,0.080013,-0.560990,0.017974,-0.823900,-17.886606,-67.149719,-157.008728,0.001558,0.008399,-0.001185,0.971893,-0.124985,0.391861,0.463524,-0.060895,0.177775
4.454344,0.082760,-0.554907,0.014999,-0.827798,-16.913796,-66.379456,-157.498596,0.005865,0.046363,0.000351,0.869751,-0.113434,0.448730,0.460761,-0.059695,0.185213
4.464371,0.084745,-0.549482,0.012039,-0.831257,-15.951558,-65.710785,-158.042038,0.010832,0.046425,-0.011733,0.785507,-0.077133,0.419998,0.458110,-0.058340,0.192099
4.474399,0.085752,-0.544115,0.009247,-0.834712,-14.935771,-65.063171,-158.733078,0.017474,0.039428,-0.028931,0.783234,-0.040817,0.417450,0.455740,-0.056573,0.198170
4.484426,0.085904,-0.537868,0.006607,-0.838761,-13.801261,-64.309708,-159.624252,0.016837,0.049567,-0.024196,0.764206,-0.044510,0.440598,0.453387,-0.054377,0.204097
4.494452,0.085567,-0.531073,0.003967,-0.843131,-12.617656,-63.488998,-160.603195,0.008351,0.019858,-0.012969,0.769165,-0.063324,0.398315,0.450575,-0.051747,0.210899
4.504479,0.085446,-0.524669,0.001419,-0.847151,-11.576613,-62.710945,-161.429047,-0.005166,-0.034319,0.002920,0.854538,-0.099228,0.345627,0.447424,-0.048787,0.218191
4.514508,0.085738,-0.519098,-0.000870,-0.850546,-10.749560,-62.028809,-162.028732,-0.010829,-0.053663,0.010409,0.957047,-0.123261,0.360214,0.444352,-0.046033,0.224966
4.524534,0.086303,-0.514597,-0.002487,-0.853217,-10.193618,-61.468617,-162.392242,-0.014461,-0.038976,0.020279,0.983627,-0.147018,0.418854,0.441592,-0.043767,0.230780
4.534562,0.086853,-0.510496,-0.003220,-0.855619,-9.854522,-60.943317,-162.614502,-0.012909,-0.035270,0.017750,1.023071,-0.144150,0.457581,0.439278,-0.042289,0.235427
4.544589,0.086792,-0.505980,-0.002975,-0.858304,-9.621838,-60.352577,-162.862137,-0.004541,-0.018294,0.005109,1.019287,-0.110367,0.510880,0.437070,-0.041583,0.239627
4.554616,0.085814,-0.500984,-0.002014,-0.861331,-9.407458,-59.697342,-163.227554,0.007112,0.038373,-0.006155,0.925156,-0.072266,0.618408,0.434543,-0.041361,0.244219
4.564642,0.084303,-0.495288,-0.000702,-0.864770,-9.177288,-58.952293,-163.681900,0.017489,0.054960,-0.021192,0.861435,-0.029846,0.633499,0.431686,-0.041257,0.249255
4.574670,0.082288,-0.488522,0.001053,-0.868803,-8.940330,-58.069038,-164.220978,0.018845,0.050086,-0.023582,0.843170,-0.023254,0.624420,0.428369,-0.041147,0.254934
4.584698,0.079587,-0.481015,0.003128,-0.873227,-8.681245,-57.095062,-164.866562,0.012228,0.048770,-0.012171,0.822311,-0.050018,0.625748,0.424343,-0.041114,0.261590
4.594724,0.076795,-0.473111,0.005188,-0.877774,-8.422210,-56.075348,-165.519272,-0.000320,0.010720,0.002135,0.833115,-0.086517,0.559296,0.419787,-0.041014,0.268860
4.604752,0.074293,-0.466417,0.006851,-0.881551,-8.199091,-55.217537,-166.081818,-0.016060,-0.036062,0.018774,0.873825,-0.131912,0.494141,0.414886,-0.040886,0.276384
4.614779,0.072707,-0.463176,0.007721,-0.883383,-8.075820,-54.805546,-166.407227,-0.028495,-0.061566,0.032537,0.914078,-0.173203,0.472794,0.410662,-0.040691,0.282652
4.624805,0.072129,-0.462849,0.008072,-0.883598,-8.071539,-54.763809,-166.489914,-0.040679,-0.100178,0.043986,1.014328,-0.221634,0.433304,0.408600,-0.040497,0.285652
4.634833,0.071304,-0.461990,0.008606,-0.884110,-8.056253,-54.653965,-166.619125,-0.026449,-0.081903,0.026169,1.032623,-0.176605,0.490936,0.408390,-0.040517,0.285949
4.644860,0.069533,-0.458216,0.009476,-0.886204,-7.904829,-54.176849,-166.988190,0.001506,-0.016278,-0.004444,0.932816,-0.080566,0.611206,0.407837,-0.040551,0.286734
4.654887,0.066817,-0.451984,0.010528,-0.889595,-7.623718,-53.394382,-167.579376,0.009704,0.017018,-0.011196,0.832016,-0.053619,0.639633,0.405414,-0.040259,0.290192
4.664914,0.063596,-0.444808,0.011428,-0.893430,-7.264434,-52.500141,-168.278366,0.004637,0.026180,-0.002790,0.759384,-0.068008,0.623962,0.401380,-0.039566,0.295844
4.674941,0.060163,-0.436781,0.012054,-0.897609,-6.844353,-51.505451,-169.033020,0.002516,0.021813,-0.000523,0.748764,-0.071381,0.624283,0.396677,-0.038499,0.302261
4.684968,0.056958,-0.427939,0.012283,-0.902064,-6.387252,-50.412956,-169.771408,-0.002938,0.010080,0.004926,0.745346,-0.082855,0.614105,0.391334,-0.037098,0.309322
4.694995,0.054334,-0.419933,0.012237,-0.905980,-5.982705,-49.426514,-170.386139,-0.003220,0.014245,0.005508,0.712128,-0.079071,0.620819,0.385329,-0.035454,0.316963
4.705023,0.053191,-0.413994,0.011841,-0.908781,-5.699270,-48.694443,-170.725220,-0.000823,-0.020832,-0.001216,0.782166,-0.066635,0.612167,0.379786,-0.033903,0.323752
4.715050,0.053527,-0.410107,0.011246,-0.910530,-5.543418,-48.212818,-170.794434,-0.000023,-0.070884,-0.007043,0.883377,-0.057327,0.574112,0.375600,-0.032781,0.328713
4.725077,0.054214,-0.406459,0.010849,-0.912128,-5.450092,-47.757698,-170.787933,-0.007173,-0.042349,0.003950,0.858124,-0.085480,0.641968,0.372813,-0.032191,0.331930
4.735104,0.054534,-0.402399,0.010544,-0.913911,-5.338396,-47.253475,-170.838638,-0.007523,0.019100,0.010136,0.732712,-0.091354,0.716003,0.370154,-0.031931,0.334917
4.745131,0.054610,-0.398142,0.010101,-0.915774,-5.187520,-46.728447,-170.937195,0.008464,0.039999,-0.005454,0.639526,-0.041000,0.691757,0.367182,-0.031580,0.338208
4.755158,0.054794,-0.394269,0.009552,-0.917443,-5.038042,-46.252316,-171.016098,0.016171,0.019977,-0.015421,0.627823,-0.015518,0.638275,0.364057,-0.030993,0.341625
4.765185,0.055115,-0.391875,0.009003,-0.918455,-4.928517,-45.959343,-171.045395,0.005697,0.003305,-0.005678,0.677200,-0.042114,0.654907,0.361196,-0.030367,0.344704
4.775212,0.055771,-0.390658,0.008637,-0.918936,-4.891619,-45.808731,-170.990631,-0.001732,-0.017107,0.000322,0.755127,-0.063660,0.679749,0.359423,-0.029867,0.346596
4.785240,0.056076,-0.389417,0.008713,-0.919444,-4.898328,-45.652851,-170.961655,0.007660,-0.017957,-0.009437,0.802216,-0.038071,0.723587,0.358508,-0.029724,0.347555
4.795267,0.056015,-0.387376,0.009171,-0.920305,-4.923630,-45.396252,-170.977966,0.014747,0.014220,-0.013912,0.757294,-0.020889,0.781418,0.357559,-0.029848,0.348521
4.805294,0.055831,-0.384975,0.009857,-0.921316,-4.968581,-45.094112,-171.004898,0.016474,0.006249,-0.016213,0.743897,-0.014893,0.750122,0.355990,-0.030139,0.350099
4.815321,0.055420,-0.382247,0.010696,-0.922467,-5.016059,-44.751568,-171.062241,0.011904,0.003689,-0.011658,0.731064,-0.028946,0.737350,0.354134,-0.030575,0.351941
4.825349,0.054825,-0.379365,0.011749,-0.923678,-5.081490,-44.389641,-171.136475,-0.004616,0.005403,0.005064,0.718353,-0.078217,0.738281,0.352017,-0.031051,0.354017
4.835375,0.054275,-0.377164,0.012680,-0.924600,-5.144628,-44.112942,-171.199799,-0.011213,-0.018799,0.009340,0.724304,-0.092255,0.683838,0.349767,-0.031651,0.356187
4.845403,0.053849,-0.375704,0.013474,-0.925207,-5.208865,-43.928265,-171.240524,-0.009930,-0.034855,0.006522,0.725342,-0.085388,0.647995,0.348037,-0.032195,0.357830
4.855430,0.053482,-0.374065,0.014404,-0.925879,-5.293396,-43.720219,-171.267654,-0.003722,-0.028898,0.000964,0.734070,-0.071976,0.676178,0.346879,-0.032697,0.358908
4.865457,0.053070,-0.372144,0.015411,-0.926660,-5.381197,-43.477222,-171.301895,-0.000207,-0.017305,-0.001404,0.706909,-0.064194,0.687195,0.345569,-0.033342,0.360111
4.875484,0.052765,-0.370116,0.016342,-0.927473,-5.462038,-43.221550,-171.326996,-0.004043,-0.018207,0.002134,0.680069,-0.073181,0.664185,0.344033,-0.034031,0.361515
4.885511,0.052430,-0.367846,0.017059,-0.928382,-5.505628,-42.938602,-171.372971,-0.009799,-0.008702,0.008412,0.665848,-0.090958,0.681549,0.342411,-0.034686,0.362990
4.895539,0.052032,-0.365904,0.017471,-0.929164,-5.507602,-42.699326,-171.439697,-0.022101,0.010194,0.021626,0.626099,-0.124634,0.698593,0.340607,-0.035124,0.364641
4.905566,0.051575,-0.363922,0.017715,-0.929962,-5.481766,-42.457302,-171.524796,-0.020612,0.013943,0.020436,0.625992,-0.122864,0.715195,0.339076,-0.035272,0.366053
4.915593,0.051025,-0.361567,0.017853,-0.930909,-5.429506,-42.171288,-171.634613,-0.001779,0.012119,0.002796,0.650177,-0.076096,0.743469,0.337520,-0.035244,0.367490
4.925620,0.050628,-0.359663,0.017883,-0.931667,-5.379233,-41.940739,-171.720062,-0.001897,-0.006773,0.001081,0.678543,-0.074097,0.726196,0.335675,-0.035068,0.369195
4.935647,0.050613,-0.358673,0.017776,-0.932051,-5.346240,-41.820801,-171.743530,-0.008099,-0.026375,0.004822,0.717880,-0.089584,0.715759,0.334181,-0.034870,0.370566
4.945674,0.051041,-0.358524,0.017456,-0.932091,-5.321288,-41.802986,-171.701859,-0.004112,-0.033532,0.000557,0.735413,-0.078308,0.715530,0.333402,-0.034722,0.371281
4.955702,0.051788,-0.359452,0.016846,-0.931704,-5.290720,-41.917561,-171.613281,-0.005312,-0.037270,0.001298,0.737259,-0.080460,0.707047,0.333286,-0.034570,0.371399
4.965729,0.052718,-0.361338,0.015838,-0.930940,-5.230062,-42.151836,-171.505035,-0.011207,-0.033355,0.007010,0.725052,-0.095764,0.703476,0.334030,-0.034311,0.370754
4.975756,0.053497,-0.362973,0.014953,-0.930274,-5.174613,-42.355442,-171.415680,-0.005617,-0.015131,0.003718,0.715164,-0.083466,0.740814,0.335549,-0.033794,0.369428
4.985783,0.053970,-0.363814,0.014267,-0.929928,-5.116941,-42.462048,-171.372009,0.007070,0.009519,-0.005605,0.710388,-0.052383,0.807022,0.336864,-0.033329,0.368271
4.995810,0.054200,-0.364321,0.013733,-0.929724,-5.061719,-42.527782,-171.360519,0.010519,0.004607,-0.009245,0.716553,-0.040527,0.795120,0.337551,-0.032902,0.367679
5.005837,0.054398,-0.364823,0.013367,-0.929521,-5.028814,-42.591534,-171.344345,0.002902,0.004031,-0.002313,0.708176,-0.060898,0.782272,0.337974,-0.032514,0.367324
5.015865,0.054809,-0.365779,0.013092,-0.929126,-5.029207,-42.708889,-171.284897,-0.001039,-0.011896,-0.000088,0.724793,-0.068848,0.749313,0.338384,-0.032270,0.366969
5.025891,0.055298,-0.367201,0.012939,-0.928538,-5.060273,-42.881790,-171.199600,-0.003632,-0.029466,0.000772,0.744110,-0.073029,0.713898,0.339137,-0.032212,0.366278
5.035919,0.055603,-0.368866,0.013046,-0.927857,-5.123406,-43.083199,-171.121841,-0.002168,-0.011406,0.001010,0.718887,-0.071350,0.737122,0.340244,-0.032320,0.365240
5.045946,0.055847,-0.371213,0.013199,-0.926904,-5.202837,-43.368198,-171.038483,0.003020,0.003703,-0.002502,0.699753,-0.059265,0.757004,0.341530,-0.032615,0.364011
5.055973,0.055923,-0.374404,0.013504,-0.925611,-5.311783,-43.756424,-170.955246,0.003997,0.004012,-0.003423,0.696014,-0.056641,0.746323,0.343342,-0.032965,0.362270
5.066001,0.055755,-0.378234,0.014099,-0.924054,-5.462864,-44.222294,-170.877884,-0.000529,0.019493,0.002320,0.687256,-0.073410,0.773697,0.345797,-0.033437,0.359883
5.076027,0.055374,-0.382767,0.014923,-0.922195,-5.651279,-44.774506,-170.802826,0.002704,0.018017,-0.000920,0.699188,-0.065659,0.769547,0.348722,-0.034117,0.356984
5.086054,0.054764,-0.387709,0.016006,-0.920147,-5.875814,-45.377068,-170.734589,0.010879,0.005724,-0.010271,0.728027,-0.041824,0.747788,0.352159,-0.034957,0.353510
5.096082,0.053893,-0.392862,0.017410,-0.917985,-6.140468,-46.005444,-170.676483,0.006859,-0.001876,-0.007174,0.761139,-0.055466,0.742264,0.355872,-0.035961,0.349669
5.106109,0.052779,-0.398167,0.018966,-0.915731,-6.420191,-46.654278,-170.637100,0.002523,-0.002272,-0.002870,0.770233,-0.071060,0.733307,0.359703,-0.037155,0.345600
5.116136,0.051543,-0.403674,0.020721,-0.913349,-6.731612,-47.328766,-170.592926,0.002498,-0.008762,-0.003646,0.770874,-0.070923,0.698563,0.363613,-0.038383,0.341348
5.126163,0.050078,-0.409533,0.022781,-0.910769,-7.088629,-48.047474,-170.548569,0.003300,-0.002206,-0.003862,0.765045,-0.071808,0.694809,0.367627,-0.039732,0.336862
5.136191,0.048399,-0.415926,0.025054,-0.907899,-7.484235,-48.834549,-170.501480,0.002485,0.005735,-0.002071,0.747543,-0.077286,0.683106,0.371850,-0.041256,0.332008
5.146217,0.046645,-0.422959,0.027541,-0.904663,-7.933773,-49.703030,-170.424072,-0.000911,-0.007878,0.000016,0.764099,-0.087082,0.642075,0.376406,-0.042877,0.326623
5.156245,0.044905,-0.430324,0.030165,-0.901188,-8.427442,-50.614708,-170.311096,-0.004654,-0.015988,0.003310,0.787537,-0.100937,0.619843,0.381351,-0.044644,0.320591
5.166272,0.043318,-0.437436,0.032775,-0.897744,-8.937615,-51.496651,-170.164871,-0.004438,-0.013230,0.003500,0.802795,-0.105835,0.617767,0.386448,-0.046508,0.314157
5.176299,0.041839,-0.443897,0.034972,-0.894554,-9.382459,-52.302799,-170.037399,-0.003721,-0.008457,0.003400,0.799362,-0.107590,0.607040,0.391286,-0.048372,0.307821
5.186326,0.040481,-0.449512,0.036498,-0.891747,-9.708202,-53.010681,-169.959534,-0.002518,0.008645,0.004726,0.764542,-0.108063,0.604996,0.395627,-0.049857,0.301977
5.196354,0.039199,-0.454903,0.037536,-0.889023,-9.957237,-53.696793,-169.909164,0.002983,0.026890,0.000584,0.745270,-0.096115,0.619507,0.399374,-0.050744,0.296851
5.206381,0.037978,-0.460806,0.038299,-0.885998,-10.188237,-54.452843,-169.847519,0.006075,0.029390,-0.003231,0.747864,-0.087250,0.612534,0.402948,-0.051202,0.291899
5.216407,0.036864,-0.467928,0.038772,-0.882284,-10.430157,-55.369381,-169.740570,0.004800,0.009958,-0.005029,0.769180,-0.085403,0.565018,0.406819,-0.051433,0.286435
5.226435,0.035749,-0.476658,0.038999,-0.877636,-10.701849,-56.498882,-169.582489,0.002940,-0.010083,-0.006177,0.794052,-0.085037,0.516693,0.411416,-0.051457,0.279785
5.236462,0.034467,-0.487071,0.039136,-0.871946,-11.028373,-57.854607,-169.375275,0.000189,-0.016166,-0.003343,0.816925,-0.092758,0.494812,0.416938,-0.051267,0.271523
5.246489,0.032865,-0.498435,0.039120,-0.865563,-11.361863,-59.348267,-169.174347,-0.005521,-0.015953,0.005832,0.825714,-0.112503,0.473877,0.423350,-0.050912,0.261477
5.256517,0.030973,-0.509256,0.038755,-0.859328,-11.596362,-60.789669,-169.066467,-0.010401,-0.015635,0.014737,0.849457,-0.132599,0.458847,0.430141,-0.050242,0.250279
5.266544,0.029097,-0.518995,0.037946,-0.853583,-11.706049,-62.104458,-169.044601,-0.006370,-0.020559,0.007397,0.877838,-0.115433,0.435089,0.436417,-0.049076,0.239403
5.276570,0.027373,-0.527687,0.037001,-0.848336,-11.759125,-63.289043,-169.054947,-0.002130,-0.008505,0.002342,0.892227,-0.101196,0.444000,0.441901,-0.047491,0.229451
5.286597,0.025725,-0.535726,0.036055,-0.843375,-11.790518,-64.393143,-169.080566,0.001366,0.030011,0.003473,0.891525,-0.099503,0.509247,0.446643,-0.045834,0.220423
5.296625,0.024184,-0.544111,0.034925,-0.838084,-11.821050,-65.551254,-169.082870,0.007224,0.044574,-0.006075,0.882202,-0.072662,0.515915,0.450890,-0.044189,0.211943
5.306652,0.022765,-0.553405,0.033827,-0.832061,-11.944828,-66.837692,-168.984314,0.008353,0.027247,-0.013037,0.901703,-0.054993,0.462830,0.455166,-0.042429,0.202970
5.316679,0.021376,-0.563672,0.033110,-0.825207,-12.260246,-68.260361,-168.723297,0.002526,0.016163,-0.002607,0.927780,-0.076431,0.425171,0.459697,-0.040744,0.192844
5.326706,0.020140,-0.575128,0.032788,-0.817309,-12.857583,-69.850090,-168.200851,0.000200,0.003168,0.000175,0.966812,-0.082352,0.384781,0.464438,-0.039371,0.181424
5.336734,0.019147,-0.587982,0.032787,-0.808137,-13.843843,-71.637779,-167.296433,-0.001613,-0.016072,0.000833,0.997788,-0.083450,0.321976,0.469397,-0.038381,0.168400
5.346760,0.018552,-0.601942,0.032878,-0.797804,-15.312333,-73.585747,-165.886139,-0.005763,-0.028690,0.010762,1.018265,-0.104980,0.265381,0.474542,-0.037755,0.153452
5.356788,0.018613,-0.616062,0.032832,-0.786952,-17.351845,-75.557892,-163.842423,-0.009267,-0.038217,0.022038,1.060623,-0.132782,0.215744,0.479622,-0.037397,0.136835
5.366815,0.019468,-0.629126,0.032588,-0.776537,-20.007032,-77.372025,-161.105911,-0.007918,-0.034612,0.021252,1.096695,-0.133698,0.190842,0.484200,-0.037304,0.119639
5.376842,0.020750,-0.640279,0.032421,-0.767340,-23.211748,-78.895287,-157.795074,-0.003467,-0.019189,0.009392,1.088196,-0.105103,0.186981,0.487905,-0.037554,0.103388
5.386869,0.021818,-0.649256,0.032575,-0.759721,-26.689846,-80.092216,-154.257050,0.003695,0.026143,-0.009134,1.067871,-0.062607,0.252777,0.490638,-0.038164,0.089241
5.396897,0.022307,-0.656600,0.032973,-0.753351,-30.220390,-81.051544,-150.735153,0.007785,0.061068,-0.018778,1.028595,-0.040466,0.294846,0.492543,-0.038914,0.077652
5.406924,0.022262,-0.663110,0.033721,-0.747595,-34.050056,-81.879379,-146.989059,0.005708,0.054312,-0.009917,0.995575,-0.058960,0.250137,0.493914,-0.039487,0.068035
5.416951,0.021850,-0.669470,0.035033,-0.741856,-38.764320,-82.643951,-142.439545,0.001647,0.029187,0.005917,0.990921,-0.092102,0.178497,0.494986,-0.039972,0.059393
5.426978,0.021087,-0.676311,0.036863,-0.735558,-45.091434,-83.402336,-136.357346,0.000277,0.011856,0.006772,1.001785,-0.095901,0.126923,0.495885,-0.040617,0.050827
5.437005,0.020049,-0.683713,0.038984,-0.728602,-53.626850,-84.123970,-128.123352,0.000601,0.006395,-0.000817,0.988632,-0.080719,0.095413,0.496689,-0.041376,0.041490
5.447033,0.019042,-0.691066,0.041181,-0.721536,-64.193413,-84.678665,-117.865654,0.000708,0.006555,-0.002434,0.965698,-0.077011,0.073502,0.497373,-0.042112,0.031263
5.457060,0.018035,-0.697620,0.043242,-0.715106,-75.246391,-84.993240,-107.097763,0.000796,0.013994,0.009698,0.906860,-0.095901,0.063904,0.497845,-0.042873,0.020977
5.467086,0.016769,-0.703104,0.044783,-0.709650,-85.225403,-85.145782,-97.365395,0.002141,0.033271,0.032562,0.844086,-0.129807,0.077133,0.498092,-0.043504,0.011702
5.477114,0.015320,-0.707496,0.045562,-0.705253,-93.498199,-85.227013,-89.278687,0.003561,0.044708,0.044798,0.820038,-0.146973,0.081497,0.498207,-0.043571,0.003884
5.487141,0.013916,-0.710330,0.045837,-0.702411,-99.005974,-85.281418,-83.907852,0.002488,0.027006,0.033168,0.878510,-0.135010,0.044037,0.498266,-0.042972,-0.002383
5.497168,0.012375,-0.711313,0.045898,-0.701440,-101.138878,-85.379837,-81.909317,0.000917,0.008444,0.015790,0.957184,-0.111359,0.003983,0.498305,-0.042081,-0.006426
5.507196,0.010590,-0.710920,0.045837,-0.701871,-100.708969,-85.544113,-82.490120,0.000400,0.002594,0.011866,0.971558,-0.103180,-0.010178,0.498375,-0.040997,-0.007829
5.517222,0.008850,-0.710505,0.045670,-0.702326,-100.199852,-85.713806,-83.138344,-0.000889,-0.013705,0.013918,0.969147,-0.104416,-0.040939,0.498489,-0.039700,-0.007265
5.527249,0.007584,-0.711638,0.045547,-0.701201,-102.830513,-85.797791,-80.605431,-0.002002,-0.028799,0.016004,0.972717,-0.106323,-0.069641,0.498602,-0.038363,-0.006660
5.537277,0.006943,-0.714917,0.045654,-0.697858,-109.707649,-85.700760,-73.771034,-0.002111,-0.032390,0.018980,0.997070,-0.112961,-0.081894,0.498656,-0.037335,-0.008260
5.547304,0.006912,-0.720154,0.046004,-0.692429,-119.381218,-85.326721,-64.082733,-0.002234,-0.034609,0.012416,1.027817,-0.101730,-0.098663,0.498593,-0.036824,-0.012947
5.557331,0.007522,-0.726655,0.046506,-0.685565,-128.949326,-84.646980,-54.447155,-0.003018,-0.040972,0.000257,1.030365,-0.076691,-0.127914,0.498338,-0.036832,-0.020494
5.567359,0.008743,-0.733574,0.047162,-0.678096,-136.426468,-83.742729,-46.871155,-0.003518,-0.041632,-0.006562,1.020798,-0.062973,-0.147766,0.497819,-0.037349,-0.029944
5.577385,0.010162,-0.739728,0.048048,-0.671295,-141.222626,-82.827309,-41.997189,-0.001691,-0.021014,-0.000842,1.005157,-0.075928,-0.124039,0.497021,-0.038394,-0.040109
5.587413,0.011368,-0.744234,0.049056,-0.666202,-143.837738,-82.097839,-39.346596,0.000463,0.011445,-0.004575,0.978592,-0.069382,-0.074478,0.496087,-0.039771,-0.049260
5.597440,0.012192,-0.747604,0.049910,-0.662339,-145.518097,-81.539566,-37.657471,0.001134,0.026964,-0.009772,0.943405,-0.059692,-0.055222,0.495252,-0.041141,-0.056046
5.607467,0.012832,-0.751376,0.050384,-0.658009,-147.472717,-80.942360,-35.678337,0.000120,0.022748,-0.014712,0.905731,-0.050171,-0.070160,0.494559,-0.042172,-0.061158
5.617494,0.013397,-0.756493,0.050551,-0.652095,-150.062317,-80.149185,-33.044403,-0.001666,0.009861,-0.018618,0.907837,-0.044189,-0.104660,0.493765,-0.042795,-0.066860
5.627521,0.013732,-0.762978,0.050611,-0.644484,-153.032211,-79.132187,-30.040346,0.000103,0.000251,0.000537,0.937470,-0.083054,-0.141464,0.492628,-0.043099,-0.074592
5.637548,0.013930,-0.770731,0.050518,-0.635196,-156.086075,-77.883629,-26.952873,0.000253,-0.015486,0.009374,0.951904,-0.102188,-0.194519,0.491032,-0.043095,-0.084452
5.647575,0.014235,-0.779379,0.050349,-0.624562,-158.850937,-76.435883,-24.142468,-0.002410,-0.029556,0.000909,0.974518,-0.087250,-0.253113,0.488862,-0.042826,-0.096332
5.657602,0.014738,-0.788369,0.050272,-0.613171,-161.111526,-74.868118,-21.830925,-0.001951,-0.019156,-0.001216,1.029861,-0.087463,-0.274597,0.486054,-0.042541,-0.109719
5.667629,0.015379,-0.797336,0.050257,-0.601450,-162.918213,-73.249580,-19.969757,-0.000151,0.004936,-0.002280,1.049316,-0.087158,-0.258072,0.482664,-0.042445,-0.123804
5.677656,0.016173,-0.805797,0.050257,-0.590044,-164.297485,-71.674545,-18.526695,-0.001226,0.008777,-0.006955,1.023361,-0.075394,-0.275543,0.478785,-0.042489,-0.138022
5.687684,0.016966,-0.813501,0.050365,-0.579344,-165.341705,-70.200592,-17.428617,-0.002559,-0.000587,-0.007848,0.990555,-0.071854,-0.317642,0.474643,-0.042686,-0.151586
5.697711,0.017470,-0.820540,0.050777,-0.569278,-166.186249,-68.820999,-16.579931,-0.002149,0.010559,-0.008927,0.968460,-0.069122,-0.314865,0.470442,-0.042981,-0.164073
5.707738,0.017684,-0.827094,0.051510,-0.559640,-166.900513,-67.507141,-15.912623,-0.003554,0.024039,-0.015355,0.956268,-0.055557,-0.308334,0.466228,-0.043241,-0.175618
5.717765,0.017668,-0.833494,0.052425,-0.549977,-167.559998,-66.198883,-15.335088,-0.005649,0.020411,-0.018750,0.923386,-0.047028,-0.329407,0.461964,-0.043453,-0.186490
5.727792,0.017561,-0.840159,0.053432,-0.539645,-168.204056,-64.809639,-14.789557,-0.007126,0.006109,-0.017879,0.885651,-0.046799,-0.368973,0.457476,-0.043559,-0.197214
5.737819,0.017516,-0.847124,0.054393,-0.528548,-168.822113,-63.327423,-14.262870,-0.002627,-0.010783,-0.003446,0.835709,-0.073410,-0.407288,0.452449,-0.043589,-0.208475
5.747846,0.017592,-0.854285,0.055033,-0.516825,-169.424377,-61.774654,-13.716667,-0.001655,-0.030328,0.002644,0.780182,-0.081451,-0.445984,0.446793,-0.043587,-0.220330
5.757875,0.017653,-0.861668,0.055292,-0.504389,-170.043869,-60.143982,-13.124143,-0.002575,-0.046844,0.003878,0.726013,-0.079315,-0.476028,0.440547,-0.043471,-0.232583
5.767901,0.017774,-0.869256,0.055337,-0.491186,-170.641144,-58.426163,-12.532337,-0.001200,-0.038479,0.004640,0.708817,-0.079636,-0.477112,0.433640,-0.043099,-0.245280
5.777928,0.017958,-0.876462,0.055460,-0.478189,-171.145126,-56.744907,-12.035802,-0.000135,-0.015293,0.002301,0.755325,-0.080475,-0.490677,0.425983,-0.042632,-0.258420
5.787955,0.017867,-0.882523,0.055904,-0.466856,-171.554443,-55.288094,-11.683581,-0.000189,0.020105,-0.003426,0.821625,-0.075195,-0.486511,0.418119,-0.042259,-0.271013
5.797982,0.017089,-0.887137,0.056668,-0.457964,-171.937347,-54.156242,-11.441615,-0.002425,0.044978,-0.010223,0.849228,-0.062256,-0.475403,0.411013,-0.041867,-0.281726
5.808009,0.015533,-0.890339,0.057692,-0.451632,-172.326630,-53.361652,-11.279871,-0.004788,0.044276,-0.012970,0.830200,-0.053345,-0.488602,0.405308,-0.041112,-0.289977
5.818038,0.013321,-0.892118,0.059142,-0.447989,-172.694717,-52.915115,-11.229359,-0.003247,0.031291,-0.008624,0.813797,-0.060059,-0.524338,0.401209,-0.039885,-0.295788
5.828064,0.010681,-0.892313,0.061157,-0.447400,-172.988388,-52.857430,-11.334336,-0.001705,0.025927,-0.005600,0.829224,-0.065735,-0.556809,0.398872,-0.038379,-0.299128
5.838091,0.007889,-0.891196,0.063628,-0.449336,-173.189880,-53.119511,-11.579555,0.002720,0.017927,0.001410,0.841156,-0.081497,-0.586304,0.398568,-0.036892,-0.299719
5.848118,0.005035,-0.889597,0.066024,-0.452191,-173.377701,-53.501328,-11.834814,0.005313,-0.011207,0.008468,0.811432,-0.094147,-0.633621,0.399945,-0.035621,-0.298035
5.858145,0.002472,-0.888839,0.067963,-0.453414,-173.607346,-53.676758,-11.986828,0.006760,-0.049104,0.014901,0.743408,-0.100769,-0.669342,0.401935,-0.034335,-0.295498
5.868172,0.000519,-0.889472,0.069321,-0.451969,-173.868851,-53.509537,-12.010766,0.008497,-0.061548,0.018527,0.707428,-0.102905,-0.666275,0.402844,-0.033012,-0.294409
5.878200,-0.000854,-0.891445,0.070113,-0.447943,-174.159607,-53.011185,-11.913491,0.004404,-0.054537,0.011849,0.711258,-0.084854,-0.654892,0.401978,-0.031793,-0.295724
5.888227,-0.001480,-0.895756,0.070172,-0.439250,-174.517120,-51.917992,-11.634071,0.010155,-0.041737,0.017822,0.711914,-0.097366,-0.633698,0.399376,-0.030645,-0.299347
5.898254,-0.000763,-0.902908,0.069677,-0.424442,-174.843658,-50.046940,-11.238165,0.017924,-0.040993,0.026911,0.664337,-0.112076,-0.613190,0.393564,-0.029497,-0.307058
5.908281,-0.001861,-0.894720,0.069232,-0.441510,-174.592514,-52.214760,-11.505406,0.013600,-0.004960,0.016745,0.720947,-0.095901,-0.613937,0.383285,-0.028885,-0.319848
5.918308,-0.002502,-0.886783,0.068944,-0.457282,-174.251526,-54.229549,-11.841548,0.015221,0.001200,0.019603,0.780975,-0.106247,-0.599915,0.395156,-0.028901,-0.305066
5.928335,-0.002792,-0.878612,0.069035,-0.472778,-173.774765,-56.218292,-12.318398,0.011636,-0.033183,0.019572,0.772965,-0.104401,-0.636566,0.405683,-0.029308,-0.290887
5.938362,-0.000564,-0.887899,0.070405,-0.454896,-173.865479,-53.889580,-12.193116,-0.004686,-0.052699,-0.001290,0.826843,-0.056717,-0.686462,0.415581,-0.030185,-0.276473
5.948391,0.000549,-0.894154,0.072486,-0.442134,-173.905640,-52.240868,-12.264668,-0.015249,-0.036108,-0.017133,0.848297,-0.019165,-0.714600,0.403941,-0.031526,-0.293070
5.958417,0.000671,-0.897914,0.075070,-0.434004,-173.926758,-51.196144,-12.474723,-0.025186,-0.072635,-0.024933,0.773300,0.006516,-0.800140,0.395296,-0.032540,-0.304517
5.968444,0.000381,-0.900303,0.077804,-0.428538,-173.926758,-50.494946,-12.749323,-0.026469,-0.118248,-0.020504,0.687363,0.000687,-0.891312,0.389648,-0.033184,-0.311640
5.978471,0.000473,-0.902825,0.080213,-0.422750,-173.904236,-49.752602,-12.987933,-0.021570,-0.173428,-0.007837,0.559677,-0.026337,-0.957581,0.385784,-0.033685,-0.316355
5.988498,0.001831,-0.907133,0.081737,-0.413125,-173.864319,-48.522758,-13.069745,-0.012040,-0.217333,0.008926,0.444428,-0.065537,-0.996246,0.381631,-0.034337,-0.321283
5.998525,0.004867,-0.913932,0.080831,-0.398021,-173.884750,-46.613895,-12.749666,-0.004126,-0.252508,0.022471,0.328720,-0.094589,-1.002548,0.374609,-0.035429,-0.329324
6.008553,0.007720,-0.907003,0.080341,-0.413621,-173.030334,-48.509853,-13.272326,-0.017877,-0.293114,0.012408,0.209290,-0.059570,-1.105728,0.363371,-0.036620,-0.341556
6.018580,0.010420,-0.899673,0.080035,-0.429332,-172.115433,-50.430080,-13.890050,-0.001702,-0.120288,0.012778,0.655151,-0.109848,-0.946823,0.374535,-0.040233,-0.328858
6.028607,0.013456,-0.892259,0.079991,-0.444459,-171.065765,-52.278328,-14.642813,-0.029970,-0.223418,-0.005639,0.366272,-0.028397,-0.821548,0.385424,-0.043736,-0.315566
6.038634,0.018002,-0.899753,0.081880,-0.428564,-170.788406,-50.197437,-14.727293,-0.012306,-0.082741,-0.003083,0.726181,-0.079010,-0.778168,0.395496,-0.047559,-0.302275
6.048661,0.020506,-0.904818,0.084252,-0.417172,-170.639893,-48.718212,-14.890424,0.004529,-0.054635,0.014372,0.609009,-0.114288,-0.626358,0.384127,-0.051289,-0.316009
6.058688,0.021666,-0.909248,0.086772,-0.406836,-170.655853,-47.397701,-15.017030,-0.023109,-0.219369,0.009516,0.327927,-0.068359,-0.779556,0.375737,-0.053702,-0.325547
6.068716,0.022566,-0.913464,0.089639,-0.396594,-170.686142,-46.095951,-15.184296,-0.024992,-0.259623,0.015214,0.258057,-0.076996,-0.889984,0.368035,-0.055002,-0.334015
6.078743,0.023756,-0.918047,0.092262,-0.385177,-170.729340,-44.655045,-15.297299,-0.024002,-0.286736,0.021792,0.192459,-0.090866,-0.983627,0.360251,-0.056164,-0.342204
6.088770,0.026150,-0.923532,0.094684,-0.371064,-170.696137,-42.876972,-15.372829,-0.025995,-0.292542,0.021765,0.163223,-0.092819,-1.052643,0.351418,-0.057346,-0.351075
6.098797,0.029308,-0.929213,0.097153,-0.355690,-170.590958,-40.944645,-15.462286,-0.028690,-0.243825,0.012981,0.259415,-0.086960,-1.060028,0.340213,-0.059285,-0.361628
6.108824,0.032436,-0.934184,0.099384,-0.341497,-170.468048,-39.167828,-15.548162,-0.007522,-0.204668,0.027325,0.276642,-0.133072,-0.920593,0.327665,-0.061790,-0.372625
6.118851,0.035047,-0.937646,0.101525,-0.330955,-170.316391,-37.844475,-15.690848,0.007567,-0.159375,0.033030,0.316422,-0.160294,-0.845947,0.315797,-0.064241,-0.382328
6.128878,0.036636,-0.939510,0.103697,-0.324761,-170.180389,-37.058853,-15.900004,-0.005036,-0.122395,0.016930,0.383469,-0.136047,-0.869492,0.306760,-0.066462,-0.389241
6.138906,0.037307,-0.940421,0.105956,-0.321301,-170.088455,-36.613255,-16.148005,-0.005906,-0.130117,0.018009,0.343048,-0.132645,-0.845871,0.301318,-0.068096,-0.393188
6.148933,0.037353,-0.941152,0.107360,-0.318677,-170.095917,-36.286690,-16.273035,-0.001663,-0.206057,0.034773,0.179871,-0.143478,-0.841614,0.298205,-0.069128,-0.395374
6.158960,0.038345,-0.942692,0.108809,-0.313473,-170.050537,-35.638733,-16.378525,-0.016082,-0.312383,0.042590,-0.049423,-0.134750,-1.007004,0.295913,-0.069368,-0.397050
6.168987,0.039595,-0.945171,0.111019,-0.304966,-170.034241,-34.589890,-16.513371,0.002545,-0.237592,0.043556,0.123901,-0.186890,-1.026703,0.291336,-0.070256,-0.400264
6.179014,0.041469,-0.949314,0.112476,-0.290999,-170.117569,-32.899773,-16.443239,-0.015054,-0.202949,0.025142,0.160660,-0.118805,-0.862808,0.283849,-0.071281,-0.405428
6.189041,0.044181,-0.954619,0.113488,-0.272256,-170.225494,-30.648726,-16.248575,-0.030299,-0.258621,0.025186,0.023468,-0.084534,-0.839783,0.271586,-0.072097,-0.413600
6.199070,0.046880,-0.959940,0.114569,-0.251884,-170.354950,-28.219141,-16.046463,-0.054672,-0.268753,0.013454,-0.028183,-0.036270,-0.839035,0.254887,-0.073074,-0.423925
6.209096,0.048834,-0.964564,0.116219,-0.232331,-170.522247,-25.902739,-15.929486,-0.051671,-0.263240,0.016638,-0.057205,-0.045502,-0.897568,0.236423,-0.073860,-0.434357
6.219123,0.049690,-0.968351,0.118542,-0.214535,-170.753037,-23.810289,-15.916283,-0.032763,-0.241651,0.024235,-0.056107,-0.094223,-1.015381,0.218422,-0.074105,-0.443638
6.229150,0.050009,-0.971933,0.121148,-0.196010,-171.048538,-21.647789,-15.929256,-0.037893,-0.237302,0.021715,-0.095062,-0.090805,-1.158218,0.201855,-0.073549,-0.451506
6.239177,0.046852,-0.968066,0.125866,-0.212278,-170.959579,-23.528412,-16.706793,-0.047709,-0.240470,0.018730,-0.165695,-0.068817,-1.305573,0.184450,-0.072352,-0.459079
6.249204,0.045740,-0.964085,0.129667,-0.227782,-170.630920,-25.298931,-17.432213,-0.050192,-0.297785,0.025278,-0.341751,-0.065842,-1.454224,0.199602,-0.072075,-0.452743
6.259233,0.046671,-0.959809,0.132994,-0.243210,-170.032043,-27.029900,-18.184246,-0.041273,-0.355850,0.038974,-0.545502,-0.096573,-1.459442,0.213670,-0.073633,-0.446023
6.269259,0.049141,-0.955183,0.136134,-0.258706,-169.205414,-28.740442,-19.001127,-0.039647,-0.367998,0.044176,-0.503662,-0.104004,-1.318405,0.227228,-0.077140,-0.438671
6.279286,0.051797,-0.950249,0.139416,-0.274148,-168.304764,-30.435947,-19.890583,-0.058403,-0.366889,0.037388,-0.405869,-0.055588,-1.179474,0.240421,-0.082158,-0.430657
6.289313,0.053872,-0.945036,0.142987,-0.289498,-167.417389,-32.124821,-20.849772,-0.065100,-0.349140,0.033257,-0.251694,-0.047562,-0.991989,0.253287,-0.087440,-0.422160
6.299340,0.055443,-0.939557,0.146679,-0.304784,-166.535156,-33.811329,-21.862129,-0.068087,-0.330882,0.030097,-0.159409,-0.052628,-0.939194,0.265883,-0.092305,-0.413289
6.309367,0.057685,-0.933674,0.150644,-0.320129,-165.489716,-35.479568,-23.002008,-0.061043,-0.313666,0.033111,-0.090500,-0.084183,-0.964310,0.278230,-0.096797,-0.404033
6.319394,0.060858,-0.927487,0.154243,-0.335444,-164.266693,-37.118603,-24.203398,-0.040065,-0.329844,0.055924,-0.121307,-0.163177,-1.049332,0.290206,-0.102085,-0.394190
6.329422,0.064186,-0.921239,0.157252,-0.350313,-162.992310,-38.701054,-25.393078,-0.043171,-0.421359,0.084838,-0.400284,-0.153625,-0.966690,0.301733,-0.108185,-0.383773
6.339449,0.067511,-0.914838,0.160119,-0.364864,-161.660706,-40.237938,-26.631805,-0.024191,-0.471315,0.123994,-0.634476,-0.172714,-0.780289,0.312629,-0.114218,-0.373161
6.349476,0.070167,-0.908244,0.163219,-0.379180,-160.336838,-41.749233,-27.946606,-0.001819,-0.475099,0.155973,-0.734924,-0.199661,-0.616745,0.322982,-0.120183,-0.362317
6.359503,0.072168,-0.902385,0.166764,-0.391063,-159.143951,-42.977345,-29.238134,-0.005265,-0.943370,0.332340,-0.835022,-0.171082,-0.498856,0.332936,-0.125618,-0.351299
6.369530,0.073388,-0.896481,0.170044,-0.402827,-158.012833,-44.210293,-30.513422,-0.018548,-0.940499,0.340081,-0.913742,-0.156891,-0.483719,0.340855,-0.130338,-0.341862
6.379557,0.074762,-0.890448,0.172869,-0.414579,-156.815720,-45.436630,-31.801170,-0.056378,-0.945047,0.322719,-0.880524,-0.146606,-0.583145,0.348647,-0.134289,-0.332345
6.389585,0.075980,-0.883814,0.175121,-0.427413,-155.513870,-46.793804,-33.153805,-0.086732,-0.946921,0.310059,-0.840424,-0.150101,-0.693497,0.356237,-0.138240,-0.322535
6.399612,0.083549,-0.893092,0.174481,-0.406472,-156.076035,-44.177090,-31.948189,-0.058856,-0.932784,0.356310,-0.860901,-0.162796,-0.568390,0.364447,-0.142001,-0.311546
6.409639,0.090429,-0.901621,0.174619,-0.385574,-156.564362,-41.582836,-30.937840,-0.018353,-0.921158,0.389473,-0.801285,-0.134369,-0.355560,0.348439,-0.145539,-0.327800
6.419666,0.096625,-0.909362,0.175203,-0.365081,-156.996857,-39.059238,-30.076359,0.009431,-0.914259,0.405727,-0.748703,-0.144196,-0.307526,0.331851,-0.148861,-0.343155
6.429693,0.102166,-0.916303,0.175255,-0.345673,-157.394226,-36.703415,-29.250900,-0.023104,-0.927507,0.373676,-0.773697,-0.145554,-0.409119,0.315062,-0.151830,-0.357380
6.439720,0.107385,-0.922618,0.175028,-0.326899,-157.741119,-34.444965,-28.471380,-0.063982,-0.938656,0.339438,-0.841888,-0.105469,-0.450348,0.298836,-0.154196,-0.370072
6.449747,0.112834,-0.928000,0.175095,-0.309318,-157.930176,-32.315502,-27.845425,-0.001453,-0.925973,0.378168,-0.872452,-0.148697,-0.367447,0.282807,-0.156292,-0.381606
6.459775,0.117783,-0.932269,0.175316,-0.294136,-158.022430,-30.472841,-27.363209,0.029270,-0.919350,0.392963,-0.911316,-0.161316,-0.309525,0.267291,-0.158870,-0.391591
6.469802,0.121876,-0.935553,0.175369,-0.281743,-158.074036,-28.974817,-26.971701,0.041071,-0.917414,0.396533,-1.000061,-0.132126,-0.202103,0.253565,-0.161372,-0.399611
6.479829,0.125159,-0.938290,0.175708,-0.270779,-158.137451,-27.655563,-26.663723,0.076083,-0.908570,0.411360,-1.000610,-0.129669,-0.101334,0.242213,-0.163431,-0.405767
6.489856,0.127861,-0.940999,0.176213,-0.259552,-158.264862,-26.321941,-26.360630,0.107604,-0.900377,0.422241,-0.954010,-0.152634,-0.082352,0.232078,-0.165014,-0.411014
6.499883,0.129843,-0.943720,0.176852,-0.247999,-158.475296,-24.970831,-26.055143,0.077127,-0.911516,0.404675,-0.977081,-0.131042,-0.108948,0.221707,-0.166054,-0.416284
6.509911,0.131386,-0.946189,0.177617,-0.236986,-158.700241,-23.690382,-25.787327,0.045127,-0.921579,0.386283,-0.962219,-0.105530,-0.139359,0.211078,-0.166395,-0.421637
6.519938,0.132867,-0.948269,0.178412,-0.227039,-158.879974,-22.530693,-25.570494,0.054796,-0.921407,0.385251,-0.942795,-0.143204,-0.208405,0.200897,-0.166409,-0.426575
6.529965,0.134135,-0.950054,0.179223,-0.218010,-159.042160,-21.479109,-25.390821,0.060233,-0.921923,0.383101,-0.946518,-0.158524,-0.232666,0.191589,-0.166500,-0.430800
6.539992,0.135235,-0.951723,0.180018,-0.209222,-159.209198,-20.460020,-25.220648,0.077406,-0.919844,0.385134,-0.968750,-0.147964,-0.158691,0.183081,-0.166508,-0.434479
6.550019,0.136316,-0.953431,0.180640,-0.200003,-159.390198,-19.398096,-25.022764,0.080005,-0.921041,0.381827,-0.990189,-0.126907,-0.098648,0.174777,-0.166369,-0.437938
6.560046,0.137368,-0.955168,0.180945,-0.190497,-159.582733,-18.312536,-24.785196,0.065005,-0.925877,0.372844,-1.002167,-0.111389,-0.101883,0.166065,-0.166096,-0.441417
6.570073,0.138362,-0.956847,0.181009,-0.181055,-159.775879,-17.241129,-24.527994,0.065789,-0.927481,0.368670,-1.004654,-0.109833,-0.097031,0.157100,-0.165679,-0.444841
6.580102,0.139446,-0.958451,0.180948,-0.171549,-159.954285,-16.163431,-24.263546,0.080951,-0.926431,0.368263,-0.985428,-0.120285,-0.085983,0.148197,-0.165164,-0.448075
6.590128,0.141090,-0.959940,0.180807,-0.161750,-160.069397,-15.041575,-23.997227,0.076868,-0.928872,0.362822,-0.973679,-0.128067,-0.121582,0.139189,-0.164693,-0.451126
6.600155,0.143212,-0.961152,0.180823,-0.152398,-160.105392,-13.955158,-23.774338,0.052101,-0.934022,0.353753,-0.944916,-0.129242,-0.202072,0.129760,-0.164684,-0.453931
6.610182,0.144971,-0.961880,0.180462,-0.146451,-160.082352,-13.262518,-23.596529,0.023545,-0.467533,0.175508,-0.928650,-0.132309,-0.227875,0.120581,-0.165206,-0.456265
6.620209,0.147839,-0.962609,0.180492,-0.138547,-159.979614,-12.319611,-23.428030,0.063212,-0.933183,0.354161,-0.936813,-0.127853,-0.169678,0.114707,-0.165874,-0.457536
6.630236,0.150874,-0.963225,0.180414,-0.130886,-159.847931,-11.402776,-23.255760,0.077431,-0.930901,0.357375,-0.930084,-0.114426,-0.096542,0.106682,-0.167318,-0.458949
6.640265,0.154049,-0.963629,0.180598,-0.123761,-159.678696,-10.537396,-23.129162,0.095512,-0.927759,0.361170,-0.924561,-0.120850,-0.065933,0.098852,-0.168939,-0.460106
6.650293,0.157300,-0.963878,0.180813,-0.117246,-159.481003,-9.737723,-23.021366,0.112817,-0.924344,0.364877,-0.951035,-0.143433,-0.069305,0.091439,-0.170797,-0.460952
6.660320,0.160475,-0.964024,0.180937,-0.111403,-159.272583,-9.016513,-22.917965,0.101838,-0.925482,0.365218,-1.001572,-0.136429,-0.066437,0.084569,-0.172817,-0.461510
6.670347,0.163526,-0.964099,0.181043,-0.106017,-159.064529,-8.349471,-22.821585,0.093226,-0.925928,0.366388,-0.993668,-0.122833,-0.057587,0.078360,-0.174859,-0.461837
6.680375,0.166425,-0.964111,0.181302,-0.100828,-158.866058,-7.705036,-22.745205,0.113225,-0.921969,0.370699,-0.964188,-0.137619,-0.047775,0.072605,-0.176849,-0.462020
6.690402,0.169005,-0.964088,0.181822,-0.095687,-158.699707,-7.067802,-22.696669,0.135989,-0.917339,0.374510,-0.940872,-0.151855,-0.030319,0.067037,-0.178732,-0.462136
6.700428,0.171232,-0.964055,0.182478,-0.090682,-158.568390,-6.450953,-22.663891,0.150279,-0.914236,0.376639,-0.922913,-0.155075,-0.008179,0.061522,-0.180334,-0.462281
6.710456,0.173185,-0.964052,0.183088,-0.085631,-158.469040,-5.836485,-22.622551,0.138420,-0.916114,0.376608,-0.934143,-0.156418,-0.037155,0.056176,-0.181625,-0.462456
6.720483,0.173994,-0.964133,0.183195,-0.082809,-158.446579,-5.504689,-22.571005,0.059664,-0.459508,0.187944,-0.947083,-0.150558,-0.067444,0.050845,-0.182637,-0.462674
6.730510,0.174364,-0.964260,0.183382,-0.080079,-158.471237,-5.191426,-22.528738,0.062025,-0.459251,0.187921,-0.972168,-0.153488,-0.054230,0.047964,-0.182924,-0.462869
6.740537,0.175261,-0.964377,0.184065,-0.074996,-158.490860,-4.596069,-22.490280,0.139919,-0.916394,0.375365,-0.984039,-0.158554,-0.020279,0.045242,-0.182818,-0.463184
6.750564,0.175171,-0.964557,0.184281,-0.072312,-158.565796,-4.297534,-22.451372,0.065757,-0.459188,0.186741,-0.979736,-0.155746,-0.037979,0.040065,-0.182822,-0.463659
6.760592,0.174955,-0.964696,0.184568,-0.070220,-158.640213,-4.065670,-22.434586,0.053396,-0.460725,0.185279,-0.963638,-0.142639,-0.076981,0.037468,-0.182288,-0.464086
6.770619,0.174698,-0.964798,0.184921,-0.068497,-158.710007,-3.873871,-22.434118,0.055848,-0.460824,0.184579,-0.959122,-0.143509,-0.068085,0.035450,-0.181739,-0.464460
6.780646,0.174621,-0.964855,0.185394,-0.066589,-158.763123,-3.655113,-22.444050,0.055659,-0.460980,0.183775,-0.948456,-0.142792,-0.070923,0.033780,-0.181215,-0.464789
6.790673,0.174653,-0.964927,0.185838,-0.064179,-158.815781,-3.379057,-22.439962,0.043600,-0.460585,0.182072,-0.953445,-0.139511,-0.124603,0.031875,-0.180829,-0.465073
6.800701,0.174591,-0.965014,0.186341,-0.061539,-158.884399,-3.078529,-22.437449,0.041873,-0.460890,0.181366,-0.994461,-0.141449,-0.129852,0.029471,-0.180455,-0.465377
6.810727,0.174514,-0.965086,0.186950,-0.058716,-158.958588,-2.755862,-22.443602,0.052452,-0.461391,0.181298,-1.017853,-0.152664,-0.094040,0.026852,-0.179950,-0.465731
6.820755,0.174395,-0.965116,0.187701,-0.056107,-159.032028,-2.454842,-22.471247,0.056893,-0.461164,0.180434,-1.006454,-0.157150,-0.084305,0.024040,-0.179398,-0.466097
6.830781,0.174225,-0.965102,0.188583,-0.053879,-159.102066,-2.194121,-22.522852,0.052595,-0.461879,0.179510,-0.981201,-0.142807,-0.079956,0.021416,-0.178843,-0.466438
6.840809,0.174104,-0.965078,0.189454,-0.051590,-159.167984,-1.925954,-22.572376,0.053127,-0.462501,0.178864,-0.952072,-0.134720,-0.065567,0.019143,-0.178305,-0.466743
6.850836,0.174119,-0.965045,0.190262,-0.049133,-159.222549,-1.637481,-22.611679,0.049843,-0.461618,0.177532,-0.933182,-0.136780,-0.093658,0.016804,-0.177798,-0.467026
6.860863,0.174178,-0.965022,0.190871,-0.046966,-159.265564,-1.384163,-22.634806,0.041329,-0.461130,0.176314,-0.936539,-0.129608,-0.119446,0.014288,-0.177381,-0.467269
6.870891,0.174149,-0.965015,0.191407,-0.044998,-159.314087,-1.156387,-22.653986,0.042321,-0.462371,0.176218,-0.954712,-0.125458,-0.099899,0.012078,-0.177050,-0.467456
6.880918,0.174119,-0.965000,0.191972,-0.042984,-159.363831,-0.922947,-22.675814,0.051440,-0.462807,0.175951,-0.959579,-0.133591,-0.070847,0.010091,-0.176670,-0.467647
6.890944,0.174073,-0.964968,0.192582,-0.041123,-159.411789,-0.705757,-22.706381,0.050329,-0.462500,0.175133,-0.970505,-0.136169,-0.080704,0.008054,-0.176276,-0.467835
6.900972,0.174148,-0.964915,0.193129,-0.039459,-159.441422,-0.508971,-22.734285,0.042069,-0.462138,0.174242,-0.977814,-0.128616,-0.105042,0.006159,-0.175894,-0.468008
6.910999,0.174486,-0.964823,0.193606,-0.037827,-159.440292,-0.311099,-22.754852,0.037293,-0.461807,0.173645,-0.979721,-0.123261,-0.117401,0.004442,-0.175658,-0.468116
6.921026,0.175096,-0.964682,0.194108,-0.035996,-159.412811,-0.084441,-22.774403,0.034169,-0.461279,0.173301,-0.962448,-0.118256,-0.125000,0.002715,-0.175672,-0.468124
6.931054,0.175964,-0.964522,0.194504,-0.033844,-159.363129,0.181331,-22.774866,0.035136,-0.460943,0.173284,-0.969193,-0.120605,-0.124298,0.000737,-0.175899,-0.468046
6.941081,0.176928,-0.964368,0.194766,-0.031632,-159.303741,0.453183,-22.758593,0.037850,-0.461061,0.173603,-0.992600,-0.125214,-0.116135,-0.001582,-0.176304,-0.467891
6.951107,0.177827,-0.964225,0.194993,-0.029465,-159.250488,0.717856,-22.739225,0.043975,-0.461936,0.174235,-1.003128,-0.129044,-0.088943,-0.003955,-0.176784,-0.467696
6.961134,0.178603,-0.964075,0.195327,-0.027405,-159.208832,0.970158,-22.734179,0.052109,-0.462093,0.174460,-0.993759,-0.135269,-0.061462,-0.006264,-0.177211,-0.467509
6.971162,0.179230,-0.963915,0.195786,-0.025589,-159.178635,1.194713,-22.748795,0.058932,-0.461496,0.174248,-0.971664,-0.142654,-0.049194,-0.008466,-0.177540,-0.467350
6.981189,0.179732,-0.963737,0.196409,-0.023971,-159.158569,1.398034,-22.786531,0.060912,-0.461221,0.174130,-0.961914,-0.143997,-0.044922,-0.010425,-0.177773,-0.467222
6.991217,0.180100,-0.963563,0.197113,-0.022339,-159.154251,1.601638,-22.833405,0.057511,-0.460225,0.173793,-0.967682,-0.145432,-0.064896,-0.012199,-0.177922,-0.467122
7.001243,0.180434,-0.963387,0.197844,-0.020752,-159.152969,1.800041,-22.884436,0.054284,-0.458831,0.173180,-0.968353,-0.147278,-0.086670,-0.013975,-0.177941,-0.467065
7.011270,0.180817,-0.963199,0.198548,-0.019348,-159.141953,1.978786,-22.936106,0.051628,-0.457867,0.172712,-0.967636,-0.146729,-0.099731,-0.015706,-0.177933,-0.467013
7.021297,0.181181,-0.963019,0.199202,-0.018158,-159.128403,2.132503,-22.986403,0.046057,-0.458144,0.172952,-0.958298,-0.134827,-0.101959,-0.017265,-0.178005,-0.466931
7.031325,0.181412,-0.962862,0.199845,-0.017090,-159.127350,2.269398,-23.038252,0.050632,-0.460046,0.173487,-0.971405,-0.133652,-0.070908,-0.018605,-0.178098,-0.466844
7.041352,0.181609,-0.962703,0.200500,-0.016235,-159.125504,2.382224,-23.095917,0.056021,-0.460383,0.173267,-0.972336,-0.138962,-0.054855,-0.019799,-0.178090,-0.466798
7.051379,0.181795,-0.962552,0.201113,-0.015518,-159.121765,2.478729,-23.151663,0.051544,-0.459421,0.172998,-0.971527,-0.136871,-0.074020,-0.020783,-0.178091,-0.466754
7.061406,0.181993,-0.962393,0.201738,-0.014923,-159.114166,2.562299,-23.211111,0.043838,-0.458812,0.173063,-0.976318,-0.128037,-0.092133,-0.021624,-0.178108,-0.466710
7.071434,0.182159,-0.962232,0.202377,-0.014633,-159.103317,2.611791,-23.278500,0.043792,-0.458286,0.172866,-0.977982,-0.129944,-0.096741,-0.022353,-0.178159,-0.466656
7.081460,0.182285,-0.962056,0.203099,-0.014649,-159.090347,2.628387,-23.361673,0.047163,-0.457982,0.172644,-0.986328,-0.137253,-0.094650,-0.022784,-0.178241,-0.466604
7.091487,0.182342,-0.961865,0.203948,-0.014709,-159.084702,2.641105,-23.460718,0.048714,-0.458163,0.172741,-0.977814,-0.137558,-0.089096,-0.022929,-0.178344,-0.466558
7.101515,0.182270,-0.961672,0.204914,-0.014725,-159.095062,2.658214,-23.572569,0.049002,-0.457656,0.172573,-0.967651,-0.138718,-0.093109,-0.023040,-0.178388,-0.466535
7.111543,0.182191,-0.961475,0.205918,-0.014633,-159.108826,2.687795,-23.686724,0.045959,-0.455549,0.171808,-0.964233,-0.141861,-0.118210,-0.023189,-0.178301,-0.466561
7.121569,0.182067,-0.961251,0.207060,-0.014740,-159.123520,2.697340,-23.820980,0.041988,-0.454876,0.171600,-0.957001,-0.136887,-0.128693,-0.023447,-0.178185,-0.466593
7.131597,0.181749,-0.961019,0.208360,-0.015427,-159.147263,2.641553,-23.985592,0.045062,-0.455446,0.171522,-0.949844,-0.138824,-0.119080,-0.023530,-0.178064,-0.466634
7.141623,0.181365,-0.960794,0.209654,-0.016434,-159.170792,2.548741,-24.156256,0.047875,-0.457001,0.171807,-0.965485,-0.140030,-0.103439,-0.023044,-0.177878,-0.466730
7.151650,0.180864,-0.960581,0.210955,-0.017685,-159.201492,2.426195,-24.332811,0.043773,-0.457146,0.171926,-0.976318,-0.135101,-0.110657,-0.022235,-0.177700,-0.466837
7.161678,0.180375,-0.960378,0.212175,-0.019058,-159.227371,2.288753,-24.502495,0.038791,-0.454830,0.171092,-0.984207,-0.137756,-0.143066,-0.021166,-0.177466,-0.466975
7.171705,0.179900,-0.960216,0.213195,-0.020325,-159.253326,2.159162,-24.646940,0.031533,-0.453163,0.170634,-0.990784,-0.133179,-0.170593,-0.019968,-0.177272,-0.467102
7.181733,0.179278,-0.960079,0.214190,-0.021744,-159.291901,2.008458,-24.791895,0.026507,-0.452884,0.170573,-0.982285,-0.124847,-0.178833,-0.018838,-0.177076,-0.467223
7.191759,0.178270,-0.959985,0.215258,-0.023590,-159.363510,1.802554,-24.954475,0.032914,-0.454114,0.170524,-0.968216,-0.131119,-0.162292,-0.017524,-0.176778,-0.467387
7.201786,0.176911,-0.959962,0.216278,-0.025360,-159.476288,1.594994,-25.110495,0.041006,-0.457762,0.171105,-0.968231,-0.133011,-0.123810,-0.015728,-0.176214,-0.467663
7.211813,0.175415,-0.959993,0.217179,-0.026825,-159.611206,1.414738,-25.246351,0.040918,-0.457735,0.170228,-0.958130,-0.133804,-0.129486,-0.013917,-0.175312,-0.468060
7.221840,0.173888,-0.960044,0.218016,-0.028152,-159.752701,1.247181,-25.371826,0.033352,-0.453711,0.167841,-0.948853,-0.136063,-0.179260,-0.012345,-0.174223,-0.468510
7.231868,0.172364,-0.960118,0.218705,-0.029572,-159.890686,1.066295,-25.481802,0.023908,-0.449273,0.165253,-0.947327,-0.134247,-0.227921,-0.010883,-0.173077,-0.468971
7.241896,0.170853,-0.960175,0.219391,-0.031357,-160.017563,0.845202,-25.598314,0.020535,-0.449746,0.164345,-0.949768,-0.128937,-0.234177,-0.009305,-0.171957,-0.469416
7.251922,0.169218,-0.960208,0.220136,-0.033920,-160.137970,0.536384,-25.736956,0.023682,-0.452767,0.164350,-0.940262,-0.126663,-0.213455,-0.007376,-0.170928,-0.469826
7.261949,0.167266,-0.960232,0.220992,-0.037186,-160.275040,0.144133,-25.902304,0.029236,-0.454464,0.163967,-0.935532,-0.132858,-0.201431,-0.004681,-0.169951,-0.470215
7.271976,0.164825,-0.960265,0.221954,-0.041275,-160.444351,-0.349653,-26.095778,0.032723,-0.456428,0.163647,-0.928146,-0.134491,-0.189514,-0.001258,-0.168832,-0.470639
7.282003,0.161985,-0.960269,0.222989,-0.046508,-160.626083,-0.978596,-26.319744,0.032619,-0.457894,0.162945,-0.932648,-0.133972,-0.189774,0.003051,-0.167437,-0.471129
