time,gx,gy,gz,ax,ay,az
0.0900439453125,-2.0318741294861886,1.0292305338586434,-0.9203311716707236,0.04881722240000963,0.15873122999332845,-0.007755436432361602
0.100072998046875,-1.567595008862334,0.0468238816073464,-1.063641773949108,0.10784648060426115,0.1227878830179572,-0.1679459983885288
0.11010205078125,-0.7426766706982225,1.7702108630434696,-0.6720132410925631,0.10049085714444518,0.08273359359242022,-0.2863730558484793
0.120130859375,0.8274832342800099,4.481774192310552,-0.2649087535568123,0.04149579347074032,0.07146854160390793,-0.37226036423146724
0.130159912109375,3.4193805287105583,6.135287858289769,0.0726122413244014,-0.01404649940058589,0.0151402129214257,-0.487969394904375
0.140188232421875,7.106987708769395,6.4304386884594145,0.29819818843695534,-0.04114318064078688,-0.03492686340920627,-0.6019838966190815
0.150217041015625,10.596096784942967,6.015856451123396,0.6377317212354758,0.02248012735545635,-0.046323067496716976,-0.677401833435893
0.16024609375,13.107830550323456,5.262453715385608,0.39046307846855854,0.0652580695912242,-0.08250504553355276,-0.6473866344004869
0.170275146484375,13.669097930274669,4.383500576758763,0.3044594975543001,0.07434592367112636,-0.035071167250722644,-0.5621989987194538
0.180303955078125,14.348067398871773,4.647798161786991,0.7792061765658904,0.12078911041617393,-0.014175897933915257,-0.5384101268529892
0.1903330078125,15.414246267932423,5.6951308313802835,0.5466317253029035,-0.026092764894664285,-0.027551220074668526,-0.5378682750612497
0.20036181640625,17.377273371245355,6.634767212574931,0.27032557381630845,-0.10408844324499368,-0.04760828500166535,-0.41964580026268955
0.210390869140625,20.47229163136659,8.685484553320716,0.08112323732951247,-0.08647051509842275,-0.04420249514617026,-0.4167074087232351
0.2204189453125,24.388978233545778,10.059705807722587,0.3697584805775756,0.03983355934694409,0.031721491496637465,-0.4266939652085304
0.230447998046875,27.165212782082303,11.040014684764191,1.3072094146812303,0.1131523319274187,0.060463236530125135,-0.41035891647934913
0.240476806640625,28.75459780194427,11.744727136343073,1.8910870686627126,0.04714344396889209,0.046209670250117775,-0.27761224176585675
0.250505859375,30.877724539402298,10.893115244963788,1.8791715902122137,0.024004852704703806,0.052200142836570734,-0.2435498131662607
0.260534912109375,32.80947279141115,10.800372375092417,1.6600705408607233,0.060196402287483214,0.07971227300986647,-0.23954642274379728
0.270563720703125,33.967719195388995,13.770667112100991,1.629139388874086,0.15336509985029698,0.10491992563307284,-0.18924129987359045
0.2805927734375,35.73221319009716,16.25484277172777,1.6174663821391226,0.17417795158065855,0.12290595643967389,-0.08772329163849353
0.2906220703125,39.12372996208865,15.414333352844341,1.525199917962359,0.09316913595423101,0.07880231855809688,0.02403086392879486
0.30064990234375,43.826793318884334,13.284587308306925,1.2690964255040302,0.041112931632995606,-0.08074614610224962,0.10846621993780135
0.310678955078125,49.65522937918258,13.043066696613396,1.3318879553695442,0.05637567495554685,-0.10773936696797609,0.1047434000223875
0.3207080078125,55.536975065952774,8.287986326646191,2.458215391252031,0.11838723690621554,0.17881255257874726,-0.08508242174088955
0.33073681640625,55.82252819967808,1.9432376974098755,0.5639759234830931,0.020074527518451214,0.03355623264312744,0.19026129057109356
0.340765869140625,53.599233322947235,-0.8687587077646316,-0.6205943497210906,0.016042422458156944,0.034371494548767804,0.28881401925981043
0.350794921875,48.69133942313204,-2.942814324656674,-1.5520771392331822,0.1027127709776163,0.1734505871541798,0.3913105171382427
0.360823974609375,43.489832766370924,-5.372242602991217,-1.5351551321210641,0.08860891536660492,0.1551211497373879,0.4645259754747152
0.37085302734375,39.841698957072886,-8.26552866465519,-1.2040259603332593,-0.020459142921864987,0.03235314046368003,0.44320787763595576
0.380880615234375,36.65172740711013,-8.735621556923194,-1.3334205857862715,-0.20921762771457433,-0.0653621144875884,0.3344686859756708
0.39090966796875,32.50922109059198,-8.30844957339955,-1.834498951389157,-0.16184965427480638,-0.007038081943243742,0.5039677590250968
0.400938720703125,25.515554757889557,-10.552682395031074,-1.6913104387421865,0.10392609229013323,0.15490210015922784,0.8593167359441518
0.410967529296875,18.248503273468206,-12.850237649739242,-0.523731488398026,0.34598690900765355,0.26928718875199553,1.159662787565589
0.420996826171875,11.026931457409033,-15.22468802789706,-0.32858684731267923,0.14879881484806537,0.2941699933350086,1.2676789256483316
0.43102587890625,6.399850113148336,-20.07309610268332,-0.9621046086345216,-0.05330846940465271,0.17871961359828709,1.2373264574825762
0.441054931640625,5.080010824918105,-27.89646137236033,-0.539619255459416,-0.10285919371098279,0.022943799344450233,1.0216717824578285
0.451083740234375,6.515811784216343,-35.57788506580072,0.5593323019819836,-0.059930152566730975,-0.1053759988375008,0.7299070966988801
0.46111181640625,9.423145837455738,-41.98337307322208,1.0311340222029612,0.0479340098246932,-0.11787468427419662,0.4042126688092947
0.471140625,11.25275629438987,-47.463985165132016,0.12017745859085203,-0.0067367609091103075,-0.1258965165577829,0.2826671870678663
0.481169677734375,11.261881427121008,-53.380701420452674,-0.7759712282202431,-0.17772168860211968,-0.07155439325645566,0.3463070078074932
0.491198974609375,10.350356823889664,-59.50430069063844,-0.7704917089586003,-0.2202477019034326,-0.028384382963180542,0.378954308912158
0.501227783203125,8.264937853291983,-65.89860084819931,-1.6894675683267524,-0.2156133201010525,-0.013006927219778298,0.3007622312068939
0.5112568359375,6.387433683010899,-74.98818244470644,-2.4395064358983083,-0.2510562432736158,-0.002560059746354818,0.22945289875268934
0.521285888671875,6.791456021003255,-80.3414388293523,-1.6948318281461512,-0.08536927585825324,0.012583879502117633,-0.14627601837217807
0.531314697265625,8.927607075434851,-79.37181834458812,-1.231812237093929,0.20184242277145384,-0.028280045805871484,-0.4574807331383228
0.54134375,11.281702636092385,-76.55475463274055,-2.5536657907990783,0.3986695015989244,-0.1714990146949887,-0.4677373387366533
0.551371826171875,11.91927688945098,-79.9348923095748,-3.733443298918323,0.3894061448216438,-0.16368980224877594,-0.20430852062404153
0.56140087890625,12.469005518573104,-86.23214913940814,-5.355803618319466,0.1268552785873413,0.049450844128429886,-0.04271510613262653
0.571429931640625,12.933745250079111,-91.02807574815931,-5.724783243888248,0.0012625672817230223,0.26468729374110694,-0.04101005578041077
0.581458984375,11.347380027603934,-90.26041712696325,-4.665060184253729,0.05943272443860769,0.2411255086287856,0.009466332003474236
0.59148779296875,5.901158365051841,-87.104494070013,-3.3223747670234522,0.11427110682427882,0.11096154388487338,0.008906360033154486
0.601516845703125,-2.020090559064036,-87.19534241616334,-0.9447656398179153,0.14012187965661285,0.06931932768076658,0.029376316609978675
0.6115458984375,-12.240417016299347,-91.91771471774264,1.2145192653325145,0.05105214184522629,0.1066147468522191,0.16971709971427917
0.62157470703125,-21.44778437126969,-96.11627981187368,4.143107800051933,0.018427929355204105,0.2504451256379485,0.2792553327977657
0.631603759765625,-29.0756098627457,-98.6071883304748,7.134210281480128,0.09142740685343742,0.3070738985717296,0.31842472914755343
0.6416318359375,-33.466799951849424,-103.69138990333553,9.775201108034876,0.2904097640186548,0.2142813408449292,0.2758434785276651
0.651660888671875,-30.055158027468494,-107.14100426440714,8.748508416339716,0.10107610968649387,0.024294629431515932,-0.6330617564499378
0.66168994140625,-25.313869516982837,-100.28940928153557,5.858692517660933,-0.39216742622852324,-0.2474728318288922,-1.428902337783575
0.67171875,-22.692743441855423,-81.50636174324383,4.400108608612472,-0.4289847064942121,-0.3361033014401793,-1.5523305645316838
0.681747802734375,-23.91796326573982,-62.66234793642055,2.8196032615583446,-0.38649084189683197,-0.19898893303647636,-1.3109738774955273
0.69177685546875,-26.589279278435782,-53.618716437554696,3.422572788373893,-0.028914836578071115,-0.08041238410323857,-0.5605377875089645
0.7018056640625,-28.520737247404913,-50.307526105297136,4.5345263045915,0.24752310071140526,0.2367138296663761,-0.0040974984467029565
0.711834716796875,-27.768658287705637,-48.304982942541095,5.466363890414462,0.12005319735705852,0.42390068122819063,0.34738135904073714
0.721863037109375,-25.13770698545716,-49.94325845648201,5.513589952770046,-0.023246727813780305,0.28702903553918,0.5056447523266077
0.731891845703125,-21.205746372746532,-52.09812166791851,4.399262092042213,-0.0008951952740550041,0.13906930186375974,0.5650310072749852
0.7419208984375,-16.556880567014904,-55.96521768162882,4.094132355495179,0.13438099791705607,0.19616306196078656,0.3097042470753193
0.751949951171875,-10.377864556998244,-55.43018164318504,4.453558253962407,0.28747546413242814,0.23235694963112472,0.1298626437097788
0.761978759765625,-5.453670410728816,-53.484270993932164,4.5513823576894445,0.27214696209728717,0.28460692295879125,0.12391045730710029
0.7720078125,-0.9766195076727392,-48.90422617427758,5.389054259859557,0.36596330991387366,0.21641762222126126,0.3139911306142807
0.782036865234375,2.1678964930333464,-42.063986380901156,6.2912757185545205,0.46140521310567856,0.22369798848778008,0.4960071554094553
0.79206591796875,6.772834790891684,-39.780138462083556,7.720566653800089,0.4935884038299322,0.18868132790327072,0.6756202107161283
0.802094970703125,13.068137759735574,-42.33467360789793,7.564973236959906,0.42670039494931694,0.09355959657654166,0.6217822375446558
0.812123046875,18.67084460570136,-43.84457571638846,6.637299505209714,0.20463234575092792,0.008130991746485234,0.2267670206695795
0.82215185546875,20.37226009587717,-43.34202747273185,6.742752930239656,0.23751287108957767,-0.05312456420511007,0.2640057412177324
0.832180908203125,19.715370067545777,-41.98142988440321,8.450754003435826,0.38307986440956593,0.01873553399965167,0.4149678715795278
0.8422099609375,19.11771314724403,-39.44334524920482,9.112420895317996,0.40054420942962166,0.13828341218307613,0.3588391571223736
0.852239013671875,15.627336217205775,-37.87382241944925,8.766319842147817,0.42991292725503444,0.17654226955920457,0.3919979148805141
0.86226806640625,9.880327110871482,-36.27328028557806,8.29190856277707,0.45484161680638785,0.14091200712099672,0.4978922385036945
0.872297119140625,4.0487611163860775,-36.19372224212575,9.146762232691174,0.39587329500913615,0.046538171552121636,0.4911164607584476
0.882325927734375,0.4723906105934797,-38.45186815909659,10.186541566836079,0.2896183213800192,-0.004388005825877189,0.4809060323894024
0.89235498046875,1.1326179333863626,-36.55078404136651,10.873831059615904,0.1326981593966484,-0.02093538213148713,0.173811091029644
0.902382568359375,3.8102760968917964,-31.08568330906168,10.74139966802488,-0.05953355446457863,-0.13119900688007474,-0.33569618194401263
0.91241162109375,6.265369237919486,-24.498141731955506,10.740759337790191,-0.03544073121547699,-0.26072657341659067,-0.4667483276993036
0.92244091796875,7.422321321049605,-20.452197214828413,10.262792944956454,-0.14428572133779524,-0.2903092262536287,-0.40084114654958247
0.9324697265625,7.172837562557488,-19.29720710353738,10.109932457557923,-0.2816051107943058,-0.21851167189106344,-0.22852526251375674
0.942498779296875,4.895372028632443,-23.382488387641867,10.970742052428276,-0.3831926771342754,-0.15014701458662746,0.019889526340365407
0.95252783203125,1.6543924125046212,-35.09400031405117,13.10572941338003,-0.35118893463015555,-0.09975903573855757,0.33681437231898304
0.962556640625,-2.5500906136554,-47.65167876352396,15.01496877697911,-0.06720891139805317,-0.01757511191815138,0.5319774634569883
0.972585693359375,-7.2493826388121745,-54.903290605326504,16.14989520758323,0.17637012786269188,0.036762042947113514,0.6391852077662944
0.98261474609375,-10.448876326251574,-57.64332685880925,17.537239816701636,0.37738428311645983,0.11745046751275658,0.6769423992305994
0.992642822265625,-10.684108041266812,-56.63681652233783,17.201828009582528,0.43916181711554525,0.15169775115996598,0.45638533911705015
1.002671875,-6.090159944669849,-50.9224446211788,13.713532579693833,0.09825462252497673,0.07143310496434568,-0.022175006929039953
1.012700927734375,0.8754514927384508,-37.234035184799566,8.136568716709824,-0.22433657865226267,-0.016545184348523617,-0.7753039892613888
1.022729736328125,6.017434651708492,-24.507396638280873,4.4387388778975945,-0.32529403039515015,-0.07900193278342485,-0.9794985281169414
1.0327587890625,6.66877002869737,-21.116600451246818,3.350032550850361,-0.21827567117810248,-0.11157689930424093,-0.7437164263427257
1.042787841796875,3.1407092374608614,-25.137442315626824,5.0993304418723095,-0.09961188235282897,-0.15728066585883496,-0.27667817578613757
1.052816650390625,-1.071134918355435,-33.47137276349875,8.021873618846032,0.08365677285194396,-0.18104849493727088,0.11945172433257102
1.062845703125,-4.056013496624161,-38.957257761447934,9.886650158495621,0.10790741701126098,-0.1701663047865033,0.4213356530457735
1.072874755859375,-5.973583983463364,-40.572737519033936,11.473739381022817,0.11112579453587532,-0.16941577868014573,0.6042483344197273
1.08290380859375,-7.05137332033939,-41.564924948815836,10.22421176765599,0.2882230676293373,-0.1237383156105876,0.7619570164322853
1.092931884765625,-9.913858217054367,-39.76093538523207,5.932472647962234,0.5967956803262233,-0.04426657335832715,0.7396399706840515
1.102960693359375,-11.441751897592354,-30.14103058080848,4.2166061850499705,0.922331118261814,-0.05149769365563989,0.4612713575929403
1.11298974609375,-11.034914241001484,-15.047757100089758,5.970593641267367,1.0908785896748303,-0.25764380497038364,-0.002717442265152931
1.123018798828125,-9.692324446419589,-1.808910714880762,8.641691087909887,0.7838999681711196,-0.42991526534259317,-0.26598785494565963
1.1330478515625,-7.412447428830705,3.6723668935864224,12.10848764361232,0.12888766119778156,-0.5743871569022536,-0.2994821282684803
1.14307666015625,-5.900057423934999,-4.491680527928009,16.12318063019202,-0.49024903027415273,-0.6986864673964679,0.050257776597142215
1.15310595703125,-8.401954009363378,-18.49560073461905,21.478216279116683,-0.8460182784318924,-0.8354374093152582,0.6038368310093879
1.163135009765625,-14.326895519992027,-30.977397489960296,28.09338938651014,-0.8729770125061274,-0.7962963622771203,0.9264595963686704
1.173163818359375,-20.475208122142188,-38.202361348716025,35.39672112825531,-0.6867050838321447,-0.658658554521203,0.7077402730762958
1.18319189453125,-24.98322005926252,-45.785230535075016,40.52275760978237,-0.5497574502974748,-0.36796485899463294,0.3144002959370613
1.193220703125,-27.07899188909465,-49.92887407808997,44.26372735027922,-0.38307226562499996,-0.2885923393331468,0.01976736126542091
1.203249755859375,-25.840695668044262,-49.17429868424906,48.125499231531506,-0.12249591433405875,-0.22559520041123032,-0.0563800588697195
1.21327880859375,-24.34815931551849,-48.16447570603018,50.44620968129966,-0.019845687198638915,-0.14620982126817106,-0.05914601645171642
1.223307861328125,-25.322632649687964,-50.53035078168505,51.11173989893112,-0.05974982756376266,-0.18027889880426226,0.2045861685216427
1.2333369140625,-30.22851505879259,-57.872534346976536,52.11993387703294,-0.0674596712887287,-0.1664828670334071,0.6389245110034942
1.243365966796875,-36.594801195472655,-64.00040931558273,54.078354017750705,-0.23276479977965353,-0.47354887455962597,0.8012427326381206
1.253394775390625,-41.20879547039679,-68.15584176510512,53.3010682449195,-0.510056723549962,-0.7376946818351745,0.48061318692266936
1.263423828125,-43.13976508084026,-71.23931700552905,48.482175125084154,-0.8919991083621979,-0.7317433722153306,0.12824644068479538
1.273452880859375,-41.76624477460196,-73.64925363151966,41.78168100212619,-0.9527145660877228,-0.7024858596794307,-0.122737906396389
1.28348095703125,-40.58040782147186,-71.27077685684613,35.39250690153741,-0.7025538103491068,-0.5512312491770833,-0.40122868456244465
1.293510009765625,-31.993845751674083,-71.99827396572252,32.27013714888486,-0.1937888801753521,-0.4319899892574176,-0.591924859419465
1.3035390625,-20.820993279063252,-70.1486519082939,28.64797854900037,0.16210136401355266,-0.4395962630100548,-0.358000952732563
1.31356787109375,-11.452854370088211,-65.1696967203539,22.120009881835053,0.35863048280775545,-0.35019374958034605,-0.24621464846134183
1.323596923828125,-5.465427727611347,-59.611575641742654,17.314468074279795,0.6884247472316026,-0.18682766286060212,-0.2049637696623802
1.3336259765625,-4.592463811112956,-57.50562341495262,16.350753995600382,0.9267857595831155,0.06863799435310065,0.2142787104964256
1.34365478515625,-5.68760268225446,-59.915887890023406,18.205368921312285,0.8312444876700639,0.17098421530695632,0.3544581655591726
1.353683837890625,-7.744204230970211,-65.77320540522705,19.50451700522561,0.5261421814322471,0.1751904165588319,0.5942015721797943
1.363712890625,-6.689013428736819,-69.58400016960894,20.423554816543966,0.2625076116144657,0.14585985705303028,0.5885504145503043
1.373741943359375,-1.564461446137179,-65.68869547462648,22.102908795700632,0.17704466612339018,0.10856933325240388,0.16780395956933497
1.38377001953125,4.862189688984052,-62.944585013303815,24.320652436183554,0.14024784412384034,0.2703514752489514,-0.1900976244419813
1.393798828125,10.396220690392653,-64.17606129046794,27.231260711356327,0.15528759234547615,0.6179857678711413,-0.2348094573497772
1.403827880859375,13.903712366943669,-63.243323827221836,29.476791268930153,0.19243629652261732,0.7360283560581505,-0.0672854837656021
1.41385693359375,17.95292171449403,-56.4446764707962,27.68236226263711,0.17750410032868386,0.5720072394957766,-0.13030746486783026
1.4238857421875,22.456767236220653,-50.68364413232223,22.688952686866067,0.20718378379940985,0.3347382601646706,-0.3996443379804492
1.433914794921875,25.137471343930795,-46.97774741321339,19.204036493069236,0.542630959418416,0.37185393885504453,-0.41162002245634793
1.443944091796875,26.437169258072306,-47.55782513413882,18.295771597619282,0.9346797277033329,0.42550391517374664,-0.1203089256837964
1.45397314453125,26.967186815023418,-56.78497698581375,16.74095587269404,0.823566208127141,0.49018422140963375,0.07013590476065874
1.464001953125,24.41419187686688,-67.96132480773234,13.367984771846427,0.5350304212868213,0.46391515009999273,-0.03534662319123745
1.47402978515625,16.32495295601066,-72.7308322447739,8.024872071891668,0.3537695987731218,0.5605890062395483,-0.49342444543987507
1.48405859375,6.425858192847275,-77.57086821518502,5.965149980498867,0.2952899372756481,0.5424450083922594,-0.9346510861307382
1.494087646484375,0.8265811157010393,-83.2041418652339,9.549850969201353,0.23808044184446334,0.55051612317767,-1.110234447529912
1.50411669921875,1.9093296501621704,-81.65646198044404,17.544114402101254,-0.010310381612181663,0.8201620257068425,-1.2449983072847126
1.514145751953125,7.484391518905742,-76.35788809029327,23.26447637916239,-0.3877338276952505,0.8014644125647843,-1.2574527151882648
1.5241748046875,11.25259493117073,-74.3087766977761,21.575099097398727,-0.6555582504183054,0.5758107964972033,-1.2231456641778349
1.534203857421875,13.979845924300863,-75.25908140756748,17.703356847505518,-0.4559124609082937,0.3791331726104021,-1.1324611846461892
1.544232666015625,14.99832360597179,-77.72258037702933,14.394702222977328,-0.19806699588596818,0.07869593557417393,-0.6683873368531466
1.55426171875,13.652012212065882,-82.76021372012892,10.33491035108168,-0.42567631259858607,0.09642634765189141,0.16040741957724095
1.564290771484375,14.984883501232497,-87.65270554336574,5.3752700843408245,-0.7587211032509803,0.09458908575475215,0.4691925059810281
1.574318603515625,19.466257700589782,-93.49374671777724,1.2774053506293508,-0.9279775997161864,0.02674114580079913,0.16087152995765208
1.584347900390625,23.58887792133944,-100.69255436710641,-2.38181993882885,-1.0153262128233909,0.18459137344220652,-0.23877368480563163
1.594376953125,23.505556443654452,-107.70411921052884,-6.195355956945447,-0.9652332713991403,0.2188066910485737,-0.6470268611773848
1.60440576171875,17.24612690899194,-108.79998891191154,-12.04101305857541,-0.6804571293532848,0.0757823040166404,-0.7772507394149899
1.614434814453125,9.354230936277602,-104.64973374578001,-15.681450098452492,-0.19490005628764628,0.14043212378271855,-0.6883665873035788
1.6244638671875,8.256406947018638,-100.77697550524776,-16.52782494228567,0.3213970229566097,0.14432248228476383,-0.8002230342015624
1.63449267578125,12.394348989623925,-95.78416869367098,-14.972881151313493,0.83895433139503,0.0945964836099185,-0.8189321185857057
1.644521728515625,19.385985902369207,-90.5204697494223,-13.599178137514896,1.0188801059126853,0.0892035202588886,-0.5943775132685899
1.65455078125,23.0280715791572,-86.48823342195944,-14.726768944950424,0.6829997995734214,0.14579510298743842,-0.13151786357089876
1.66457958984375,16.94408740615751,-80.83550739315434,-16.63671011048672,0.40385260332524775,0.23105284476261584,0.5075615457333624
1.67460791015625,5.61628227382801,-70.38063245326421,-16.879127184508814,0.6877858648061752,0.1546153739060275,0.6501240965403616
1.68463671875,-1.6420491934573505,-59.3191547528069,-14.011374931283287,0.8381389233589172,0.05584015243989415,0.28403073050603267
1.694665771484375,-3.24132347346385,-58.91647412009963,-9.687835304587598,0.6016232466131448,0.18947331853117794,0.014378215572983025
1.70469482421875,-0.973379116520097,-62.54329090899806,-8.390486975520572,0.29239596939980983,0.26079487114613875,-0.11795140277221798
1.7147236328125,-0.21906977989169646,-60.01106657610753,-10.5471303050095,0.09157353732585906,0.2665068738510832,-0.05614698076620698
1.724752685546875,-0.012877754720997078,-56.12839773108959,-12.375835761878605,0.22683950138390063,0.21102237558159975,0.04053659304976463
1.73478173828125,1.1330547453281261,-60.86619259981479,-11.900917340961986,0.42257016327679153,0.20630278144748881,0.08844576069414616
1.74481103515625,5.648252254898725,-68.66991595298613,-10.650307142611712,0.3449129231005907,0.10189224837496876,-0.059685530155897136
1.75483984375,11.047806223059883,-73.7267079767076,-9.845153344193209,0.10717734917104244,0.0437974032103084,-0.42050029820017515
1.764868896484375,15.612779376537183,-76.3578607695366,-11.034453203232509,0.00684533585011959,0.06438757036700844,-0.7160614536326378
1.774896728515625,16.289084217584335,-74.66205457221666,-11.256660601274179,0.19084815054833887,0.19339471149230375,-0.6055342460444196
1.78492578125,17.326605320434908,-71.76323349600405,-11.483788296839199,0.4151379674494266,0.21459822477437554,-0.09958148721456526
1.794954833984375,17.85162488646086,-64.59357709405249,-12.671965443533677,0.26749884403049945,0.08672854498010128,0.29022447057962414
1.80498388671875,18.37129299927211,-52.487316092109594,-11.554534542488545,0.21261165406703947,0.025205972122773528,0.5872966150969267
1.815012939453125,20.37847386047459,-44.82899039089489,-7.726141795710112,0.14463994160294533,-0.04827383623830974,0.6563052693933248
1.8250419921875,20.517878021434548,-47.51008211184043,-2.6944338551589255,-0.039838089391589164,-0.15251973506733774,0.5521615888297557
1.83507080078125,19.900181326107983,-55.07306861752551,-0.9104778767410397,-0.33588264442682264,-0.21308617624361068,0.3328454686880111
1.845099853515625,21.082188250661,-60.33463995784771,-2.2568981267868438,-0.5608709649860859,-0.2781762688567862,0.04100541613791138
1.85512890625,23.536350351527453,-62.621476084427194,-3.927241805767795,-0.4291331750541925,-0.1826181919394061,0.008059424347616731
1.86515771484375,25.987414961605303,-57.63721383950209,-2.7348438156096595,0.06748597477376461,-0.0768804836500436,0.22896303287651387
1.875186767578125,25.099507444976574,-41.88718693423538,0.01914857874542289,0.7286071200162172,-0.0097921664243564,0.5397475129365921
1.885215087890625,17.21822046359056,-21.44428389932006,0.7437731828642741,1.037470824614167,0.11178714452143758,0.8891618391096592
1.895243896484375,6.6843108434932645,-5.60393371869545,-0.3750974740331306,1.1143617565929889,0.08350026711598038,1.0254442136686295
1.90527294921875,-0.47914150553609686,2.243188656462159,-0.9249937362746093,1.0411509744316338,-0.16805150458961723,0.903535159311816
1.915302001953125,-1.987598495408639,7.992823970532322,2.264101201596857,1.0399117880254982,-0.31915461432468145,0.6152396109681576
1.925330810546875,0.1818959684057996,18.01348500186453,8.058397201659028,1.2071043376982211,-0.17552439775355158,0.39730888077020643
1.93535986328125,4.7549322402395795,34.00560966980964,12.725865027595187,1.2862234671205282,0.025206885438226162,0.22861937053799627
1.945388916015625,10.102725754209914,57.84063053336341,13.119495659652193,0.6731120272874832,0.1498109510326758,0.10531210328843443
1.955417724609375,16.154937594737994,80.57568699712706,11.228939424754037,-0.07636193966865538,0.2723706147853285,0.1782944104561582
1.96544677734375,17.484770303497598,90.80635414732237,5.452496471965221,-0.6797913589209318,0.008550495800189673,0.6085410631775856
1.97547607421875,13.253053178682622,90.59601164164265,-0.8288159749418086,-0.9431032726556062,-0.26822436355976387,1.1399673224925995
1.98550390625,8.609330505396013,93.5449116648498,-3.9467966373615417,-0.655204614675045,-0.49719176208414134,0.9574936170578002
1.995532958984375,4.751351940454024,106.48298383976812,-2.553420330875781,-0.15865034677684306,-0.39116025847997515,0.6026280397415161
2.005561767578125,1.5634555940601889,121.01225103467846,-1.4131769181679221,0.017540917387604712,0.03438077383376658,0.7865244714558124
2.0155908203125,2.2251503403075668,136.44433946427023,-3.578578364441804,-0.03399871571362018,0.09473010166063904,1.1524497874468564
2.025619873046875,6.115088854479926,152.0027590727506,-8.884669944991213,-0.0899596723884344,-0.0005855448029935359,1.2922884662479162
2.03564892578125,12.852815192377276,164.76621063134834,-13.208011496200973,0.05374678775668144,0.13125267329607157,1.4236135837256907
2.045677978515625,21.98277430593657,176.3085473097529,-13.029957002275202,0.4663251338511705,0.10522621510326861,1.1285000259302556
2.05570703125,21.601770986107628,184.13582115518244,-9.312774249336565,0.7409826174646615,0.040529323058761654,0.9709780986614525
2.065736083984375,10.190347689751068,186.73782270063384,-5.370574329286441,0.7932219232678412,-0.07950750768538564,0.7677762241050601
2.075764892578125,-3.339174897947568,183.36940562841534,-2.211592841691915,0.7215811669021844,-0.1994571350701153,0.1712678362876177
2.0857939453125,-17.72642751897453,179.2396956713072,-0.9458305089982026,0.29557167682647706,-0.09177450325805693,-0.17979016543924808
2.095821533203125,-29.63428860100148,175.31461818173264,-1.4255994314425886,0.05335574261248111,-0.01845025078486651,0.06351414853334426
2.105850830078125,-33.549387184198636,171.41764009040352,-1.9179241625721621,0.2897556840240955,0.04788487345334142,0.2989835310965776
2.1158798828125,-30.93175816592627,165.43241362261307,-1.6403448478160207,0.4942939217507839,0.07037362250667065,0.3303822934448719
2.12590869140625,-22.60786126594509,144.35607542897617,2.053105985964585,0.5528934102356433,-0.0588062996359542,0.4177741611719131
2.135937744140625,-20.835850648055324,125.18030567378703,2.389987564415716,0.06504442684054375,-0.3822870700640604,0.3540107140526175
2.145966796875,-29.435461794262405,119.97400763932315,1.55936004187912,-0.2835170818954706,-0.5488558983478695,0.14052549202144146
2.15599560546875,-37.059124285439296,126.09031909766452,4.787052485472034,0.7306371645390987,-0.2037914562136866,-0.1952498926386237
2.166024658203125,-34.4759638168134,136.0030682627524,8.415912354705945,1.1584966663956642,0.14222203027363867,-1.0711413312867284
2.1760537109375,-24.18513977550321,145.33906259394607,8.348389104571199,0.29357962622642514,0.20261799198752267,-1.6709937688350676
2.18608251953125,-13.236288479364825,151.7278439586576,6.998444050026845,-0.6540045912355185,0.19554507619291542,-1.6150778203457592
2.19611181640625,-8.10006050182246,160.7806176657275,5.0804906457072985,-0.5832312653541565,0.2171796743686311,-0.5406733956098556
2.206139404296875,-9.197106703289691,175.43022596362428,0.03706393481968825,-0.32883681756854055,0.16295704926112667,0.30842063700556754
2.21616845703125,-18.758914772406797,183.12336855413312,-2.7031673192298444,-0.16589198846817016,0.026561350520793347,0.6156178696960211
2.226197265625,-22.34354148280206,173.97512246284478,-1.2660794028815887,0.45721302211284637,-0.0015272004341240972,0.5357067131131887
2.236226318359375,-14.657000270126035,156.82399836256582,-0.37424319345877655,0.11461363665163517,-0.07846761584416963,-0.21891981430053709
2.24625537109375,-3.0007511908478954,143.8899150181228,-0.5887359461937711,-0.20331892506480215,-0.10994063987191766,-0.7877098818480968
2.256284423828125,8.299297973685379,133.87990395925394,-1.009344544811857,-0.07952303404808043,0.13729664790173993,-0.8257681020855903
2.2663134765625,15.981624959643506,136.2375076758239,-3.116735913804351,-0.3209393423169851,0.2880969387653284,-0.39958734709620475
2.276342529296875,18.506108980657114,144.79503802655455,-2.160844109271897,-0.087981650313735,0.38213155070878563,0.08437222764492035
2.286371337890625,14.1189930993933,154.4038164528202,-1.3982251004662354,0.2324135021239519,0.17426047876495868,0.334063612306118
2.296400390625,2.4809840402936802,161.4649752998061,-2.148260552943206,0.14272270980477333,-0.008392017302848399,0.2639174784123897
2.306429443359375,-11.0129423762152,166.10843842590424,-2.6552490598905623,-0.05097498495578766,0.11767890597376972,0.26624738266468045
2.316457275390625,-20.253631662825097,175.279961801884,-1.4299123757383343,-0.162561382740736,0.29531470639072355,0.09998948349356651
2.326486572265625,-24.903182195021017,185.85681025997224,1.8260384814416268,-0.25768238341510297,0.3802387957647443,-0.12009236032366752
2.336515625,-22.11524582488897,185.1059265833777,4.805478201418613,-0.11444003365039825,0.14267129014478996,-0.34925884335041046
2.34654443359375,-15.524654568318388,172.58703677820142,5.606808801449203,0.10044190343618392,-0.12957071155849845,-0.5305015456855297
2.356573486328125,-7.981611361236099,153.08736579219195,4.914678412095131,-0.039344168394804,-0.08610431213453412,-0.36664252434968947
2.3666025390625,-1.6121496134787965,145.49007807649505,3.106313472017735,-0.6110764268741011,-0.01471645510100061,-0.2842214307725429
2.37663134765625,-0.5371046252669407,154.7351489294575,2.0367267654480714,-0.862990456020832,0.013071905047656035,0.018617022186517715
2.386660400390625,-1.7820080938439626,165.90414746782915,2.769713211983044,-0.3792687816888094,-0.01780961022719275,0.33814766674935814
2.396689453125,-2.1902681373294888,177.76091873486442,2.4228909335251942,0.2409054361373186,0.1003540424896404,0.41345454440712925
2.40671826171875,0.8973476918353365,188.32107421062113,2.4202969557444707,0.35865327916145323,0.16257309144483878,0.2124491569817066
2.41674755859375,3.7770792430914186,195.57556839225342,3.343768627051225,0.4431996943295002,0.17066356851784512,-0.46879415431320665
2.426776611328125,0.9141796258277751,195.62507360335766,4.260730060861899,0.221387373457849,-0.035815393763745665,-0.7257938161611557
2.436804443359375,-2.854518548265215,188.50046229898234,3.951026232005072,-0.2839896678432822,-0.0825571501801256,-0.5930354510098695
2.44683349609375,-4.8001361397140165,178.22406020210462,3.5626136510305457,-0.6375733886554836,0.027717498285975306,-0.5708370632052421
2.4568623046875,-2.5945239824140947,170.6906074343907,2.689322952669052,-0.9197267809823155,-0.1527087457002606,-0.6584136398494244
2.466891357421875,3.2775004241764685,152.5645284716058,-0.312721838655047,-1.23226508243978,-0.2873115057423711,-0.5194178416132926
2.47692041015625,8.982476546358503,133.01047551942466,-1.6755434806517409,-1.1129537894912063,-0.11076210318948142,0.06307517259418964
2.48694970703125,12.751061595443364,122.95027623053456,-2.2376162893164864,-0.9738787885390221,0.11544956688596866,0.8193962289661169
2.496978515625,17.29117200656817,118.75188189113277,-2.163414608277349,-0.7763238338284194,0.1960794753305614,0.9922580564469099
2.507007568359375,20.844685497746735,118.61545569265094,-4.383232918720663,-0.3969858593609184,0.19102960806246846,0.5989087269574404
2.51703662109375,22.912115457617894,120.3197518151092,-7.900496888426674,-0.03420293304882943,0.1264920986976009,0.06099953536391258
2.5270654296875,23.985479685685398,121.52321748648711,-6.210067330644008,0.4283868867315352,0.1342980323413387,-0.47563306042253967
2.537094482421875,22.969512952308097,124.6796528076251,-2.1995046875214617,0.38250082241259514,0.12028722530864179,-0.7108820782333612
2.54712255859375,18.668059596067287,125.99524286441793,-1.6671102247391851,-0.06045541854985058,-0.013974968534335493,-0.7216162382155656
2.557151611328125,14.408827054180914,128.51683942295992,-2.484050795231016,-0.2313900042951107,-0.3429526558782905,-0.6525777733027934
2.5671806640625,11.14837392839915,139.6088480690072,-4.71810514089534,-0.1917522597812116,-0.40981655323095617,-0.7047603804826736
2.57720947265625,10.501771018731445,148.5119586709838,-8.09739331295157,-0.31035207999218256,-0.32880883358307184,-0.5535492437958717
2.587238525390625,14.291215465541526,143.72700134603966,-9.060131528353317,-0.2675961303925142,-0.15731767340097574,-0.22923954826295376
2.597267578125,19.011824724541324,139.2962986125874,-8.625362666925325,-0.5069617532093078,0.07377323834970594,0.03985036435127258
2.60729638671875,21.358641864864563,139.87380476729032,-9.445553126801613,-0.8994322540376335,0.20886231147088108,0.3346773602902889
2.617325439453125,19.625296947866236,143.03239842820605,-9.859586387683091,-0.9942802099242806,0.21714458478894083,0.5243395159244537
2.6273544921875,17.08660101073712,145.372243652934,-10.86919933758499,-0.7418250596381724,0.35532987035978586,0.5015133516103029
2.63738330078125,13.534515882868739,140.711472827479,-9.938983067916258,-0.4199729863904416,0.40012569175660606,0.4654273082286119
2.64741259765625,8.425751242205349,130.293603852512,-6.936495941802122,0.11546703861057758,-0.17837726643402127,0.4137286851733923
2.657441650390625,4.334502934087207,124.3078856111013,-3.5881681634799136,0.6035049687065184,-0.46466878147888924,0.13027239355444908
2.667469482421875,0.8758697884642611,134.840078292396,-1.986056366760097,0.6230997498840093,-0.21768453688453882,-0.3597732231020927
2.67749853515625,-3.3073013932988804,156.80427277624284,-3.019215540051967,0.27833471082150935,-0.008386720073223114,-0.5129220498532057
2.687527587890625,-7.7334176547234685,177.62921902728823,-8.383351135385201,0.21169453922212123,-0.017308387273363767,-0.27352117305994034
2.697556396484375,-12.338164707285046,193.41326710481079,-10.635769084963341,0.36357290764600037,-0.08770867859125137,-0.24988661497235296
2.70758544921875,-17.753493851107997,198.25242881100812,-7.565563194549466,0.40668256605416536,0.07290127782076597,-0.22531214568614957
2.71761474609375,-21.41863653898666,196.5244865736433,-3.8302919662545185,-0.019794249272346496,0.2013601922124624,-0.12615560588538646
2.7276435546875,-25.484935019840393,193.53604658533092,-0.16622924867750932,-0.5522831693828105,0.3220004322098568,0.08217150273025035
2.737672607421875,-27.28164018667434,179.41260874033523,-0.2871618300378312,-1.0193363252475858,0.08181099885478615,0.2688520122051239
2.74770166015625,-25.377771059310184,160.71161909473201,-1.8407050320237597,-1.1430959759071468,-0.014506938252877443,0.40390170316398144
2.75773046875,-23.908732265076548,151.7764202640347,-0.32292027158122805,-0.8853998562276363,0.1213964651921764,0.6142798990905285
2.767759521484375,-22.39155088247808,153.5301123145705,4.037202728763123,-0.4581190310418606,0.12743819304183124,0.7725187424570321
2.77778857421875,-19.05048701033818,161.05424870425654,8.570190106357254,-0.28774726681113244,0.06027474648701027,0.30757600287497044
2.78781640625,-11.659175601894079,167.17770454046973,8.855208777780009,-0.2939794391989708,-0.27082329401178284,-0.4477496127188205
2.797845458984375,-2.7734813419707756,172.4720846944701,7.541747178687278,-0.008036591461300849,-0.5701221198689193,-1.1013795254230498
2.80787451171875,1.2766590457408211,180.0941933176108,6.935117951137072,0.3340279564708471,-0.5396879647690802,-1.3001952938497066
2.8179033203125,-0.530594227688302,185.44276419248607,8.106023256967882,0.5302776738017797,-0.2997902261032723,-1.0983762519538403
2.827932373046875,0.25195271179451795,182.34097038470816,10.670506573308378,0.3496048803091049,0.029463940094504502,-0.9551204581856727
2.83796142578125,2.856738786632292,179.65650113521806,14.068565812751096,-0.22461130394041537,0.23192701551495118,-0.722585375508666
2.847990234375,5.384631712371974,178.73566869169528,13.887093662919382,-0.7046142500102519,0.1044689852614887,-0.22475977250039575
2.858019287109375,9.150069751796751,169.88655756529678,8.484983496461345,-1.1187380719810724,-0.16779785862211136,0.32022797917723655
2.86804833984375,11.946868292376893,157.09410502348314,3.941282540267226,-1.2035036828577517,-0.3206881075022742,0.9065168785363436
2.878077392578125,10.36594160802834,146.5339768684831,2.6026237329960833,-1.1037158594161272,-0.4015534230047837,1.131206508409977
2.8881064453125,5.72920835269677,140.51667583235027,4.4453974585647105,-1.108725796532631,-0.22459157632663845,0.9940490315169095
2.898135498046875,0.7156409676943138,135.27088564410536,7.709060346369557,-0.6399012470811605,0.1877091218702495,0.5134837753891944
2.908163330078125,-6.502589818643668,129.0902064830258,9.271026425582154,-0.03922375688552856,0.39103966430760917,0.2204629520893097
2.9181923828125,-10.890976541979928,114.39144814386161,9.612302803877364,0.4123258326381445,0.3671935092959553,0.14896131193339823
2.92822119140625,-11.904342680830748,101.83230803390643,7.383405464479811,0.4851432315677404,0.18051497258245944,0.07853753014206886
2.93825048828125,-10.709412184594418,98.41158537302397,4.532400835099156,0.2597106743723154,-0.036396643700823184,-0.08210954340994357
2.948279541015625,-7.628632307571718,110.48424525934499,5.699804815206688,0.131238608238101,-0.041441213739290834,-0.49124973174929615
2.958308349609375,-2.1977320399884315,130.32571940198943,8.186203701408308,0.032438042268157004,0.17039412219300865,-0.9198033533498644
2.96833740234375,3.047842997297606,150.67777067565981,11.3674317554598,-0.03453530680835247,0.42087483060099184,-1.1214438238084317
2.978366455078125,10.254646236823922,154.09260571347772,13.332910896684764,0.22336159614026546,0.5607056548891589,-1.2188123111486435
2.988395263671875,16.769692186079578,144.4250603395933,12.941827925188175,0.13322890527248382,0.13818959641978143,-0.8466767423406243
2.99842431640625,17.99928162348549,139.11191082575374,12.51828618720839,-0.2773456997841596,-0.42068665108513087,-0.20011545284837484
3.008453369140625,16.415265132311152,131.11975621376007,12.514669602042868,-0.41457858000099657,-0.4578324326528236,0.32613165026307106
3.018482421875,16.339916192934865,117.05455256162793,12.000132668845591,-0.20981471682488917,-0.1551670347057283,0.45420828733891244
3.02851123046875,16.42338110459242,111.55942631773172,13.723536245506963,0.02190904946923256,0.1245181408766657,0.19815993486642836
3.03853955078125,16.057060983931713,106.64382796453275,16.429545350318357,0.2115647753626108,0.34503150797896087,-0.07017711355388163
3.048568359375,14.259255302867743,92.68095420654572,17.432367384637967,0.26985212915837764,0.2800715080188587,-0.10158201338201761
3.058597412109375,13.346076940083611,71.38951286537763,16.05852776705597,0.03126782944500446,0.20939079232439398,-0.05524667092561721
3.06862646484375,12.64240267725857,64.49696406824266,13.528589839990106,-0.32498540283739563,0.24624833153523504,-0.042702831172943115
3.0786552734375,12.605064594387049,81.4358058891176,11.216104645529937,-0.5094546660035848,0.36381570342592895,-0.39764702668339014
3.088684326171875,12.961723412466775,106.29797450571998,12.754740506085062,-0.2770908482402563,0.39600298580341037,-0.9519429971933364
3.09871337890625,15.0352885897599,123.77181138390368,17.417209487322417,0.28944004220366476,0.42757812763191755,-1.3391969324171542
3.108742431640625,22.656840552483253,120.88843336540447,19.34134207840671,0.562948355782032,0.38797684267088767,-1.5919276847742496
3.118771484375,32.4814973527509,109.11022976439186,18.70552318366481,0.6105442196935414,0.12691504595056174,-1.5285544060163199
3.128800537109375,41.61377446175977,97.20079090866663,17.746523643059998,0.49626083790957926,-0.03602868717126548,-1.1641980929076672
3.138829345703125,47.47737916609441,95.28042858200419,18.24997176413976,0.12946341525912283,0.08810936834663152,-0.6852751971594989
3.1488583984375,49.76790700992028,97.02507063188972,16.05194346469608,-0.2709633052706718,0.2583491767607629,-0.33239597135484217
3.158887451171875,49.36466288660648,87.49638300383165,11.576990496932254,-0.4002057712554931,0.12912395417168734,0.19072671612575648
3.16891552734375,46.87727874561709,86.62534946954743,12.049876082797148,-0.09581073650419711,-0.21799721956290302,0.6214993289500474
3.178944580078125,44.06508837374232,85.80421046715017,15.754488726342023,0.22546529042124747,-0.06184263512454927,0.7821282823234796
3.1889736328125,41.555413910396595,79.12238666628843,19.76941223180621,0.35034430049955845,0.1971670513715595,0.8829555318154394
3.19900244140625,39.068668392094594,70.68530670157097,20.993066234823385,0.363704132810235,0.13604958871640263,0.8366454699307679
3.209031494140625,36.38036057629094,65.58475365583723,20.447762714509782,0.14727847341299055,0.11051686885729431,0.5646844223270192
3.219060546875,36.6418475384757,62.71663427994381,20.11440167168897,0.03839490484595299,0.1440511819295585,0.09735975604448467
3.22908935546875,42.625216194811934,54.254159671892246,16.813422472240582,-0.02000584619641304,-0.01914411480054259,-0.347044089910388
3.239118408203125,48.05092381107872,37.93868189580768,13.35379163875114,-0.17829788105487823,-0.33773908594846724,-0.4854273092061281
3.2491474609375,50.24496840268899,12.568396723827837,11.871125763349683,-0.0670762249290943,-0.46192309949994087,-0.12664133444256148
3.259176513671875,51.29768838399013,-15.253053803520123,10.856795714052245,0.18361118503212928,-0.43246772630438207,0.40529578787088394
3.26920556640625,50.218019891318704,-28.851746997603946,12.988326999283975,0.07364391288161277,-0.40893692085221406,0.6842050837099551
3.279234619140625,47.79394477374616,-15.552147787274981,14.79491374229964,0.07463117035329342,-0.33588498251438137,0.5493722503721714
3.289263427734375,46.73501615048948,8.718039796225936,14.864600454853987,0.2710007146716118,-0.10708967088758944,0.17075754867792128
3.29929150390625,47.659885235811736,30.20464696273798,16.080071891245485,0.53048225646317,0.23562501151636242,-0.04876256960332393
3.3093203125,50.032624651582466,42.30201164328693,19.9845666057562,1.102197856068611,0.5289196833215654,-0.05573883835673332
3.319349365234375,50.05433782295393,51.310085177333704,25.752941397587936,1.3012637998640537,0.5792709834210574,-0.0769944014864508
3.329378662109375,45.684860905221676,51.47002771712789,29.94363128360594,0.7740525278955698,0.488428244587779,-0.18292614364372564
3.33940771484375,36.66342069096919,39.68783870073459,32.342608871073274,0.26476386610865593,0.3697571492388844,-0.03867783170687034
3.3494365234375,29.17497203969646,26.33986467560901,32.972082520076235,0.09048457304537295,0.0851880740724504,0.36244324602894484
3.359465576171875,26.990044043080864,39.836364579331104,35.53305170408876,0.3758510821998119,-0.32846257742866874,-0.0727624904045835
3.36949462890625,28.5728532983194,61.14929028053348,35.32846363278478,0.40921208453178404,-0.09598287820070982,-0.881046483323723
3.3795234375,31.878149177323237,72.30842602574363,37.60208334332029,0.5833885017424821,0.47454848005622624,-1.1312871724307536
3.389552490234375,34.18779472063597,68.69552916237369,41.55597057081395,0.8965028495222329,0.5506931237123907,-0.7260919223248958
3.39958154296875,34.63965271536734,61.41333173346783,44.01927146478988,0.7829168023526668,0.01741363774612546,-0.11687982801795005
3.4096103515625,36.81769075865768,56.49179794588012,44.43443426820535,0.14835866986513138,-0.4168881721176207,0.15059256639704108
3.419639404296875,40.00022423261429,48.924235213451134,44.45759543968086,-0.27196985196471213,-0.3156622786968946,0.16979074947237968
3.42966748046875,41.018827419011224,47.92901176458316,49.31953241166562,-0.06481470973789692,0.06837678613364696,0.3938882586717605
3.439696533203125,41.69466780719481,46.23939371865126,57.45618650574007,0.43451837522387504,0.36883038978278637,0.4316213386081159
3.4497255859375,41.17713754359378,38.4366300070583,63.40125829140004,0.63167760861516,0.41210152236297726,0.5958662905216217
3.45975439453125,37.3541304009759,30.1994491887796,62.486088074699204,0.3038420770436525,0.3816301039926708,1.0324712627612054
3.469783447265625,31.927630482765395,25.784590786654483,58.65141496897894,-0.2412409517019987,0.4605348600119352,1.1948024900078773
3.4798125,29.268805178514096,35.067967048029665,56.30115712086131,-0.369621832421422,0.2333782555028796,0.7393615921340883
3.489841552734375,33.63748637920805,43.99510625550637,54.41602490993779,-0.16588614324927328,0.08058774067014456,-0.058901394040882585
3.49987060546875,40.57631312306444,48.807934167358745,54.99370523446454,0.2890828993290663,-0.025357728618383406,-0.3854476164542138
3.509899658203125,46.65107995577919,56.16530807336434,55.875725128028726,0.4360632665783167,-0.14654840557277202,-0.3846665490791201
3.519928466796875,52.20588839264297,68.3295676266444,56.09038772835847,0.33977614473402495,-0.17617840468287466,-0.2581666598007083
3.52995751953125,58.201981691402935,87.11042267421257,54.11327335988239,0.0018605331748723982,-0.01849398032873869,-0.2515907885417342
3.539986572265625,62.755887377103875,102.84700776719271,49.56788833517104,-0.7511655733048915,0.090794077385962,-0.1059700192078948
3.550015380859375,65.1267826417987,118.60402195598034,49.635517453237924,-0.6103408060759306,0.1321817343071103,-0.032115678445994854
3.560043701171875,63.09683676009257,117.51889614216208,51.919983504175406,-0.40178339583575723,0.18218904327452182,-0.043135085110366345
3.57007275390625,59.873998339843716,95.26432982613048,56.95992886630904,-0.26645664150118825,0.23372838411480187,0.15135931298583746
3.580101318359375,58.49321412742311,63.66293649888157,62.668023823620835,0.1037321771532297,0.13162293138056994,0.32312165479212995
3.590130615234375,60.328677202702295,46.28978002415844,68.2874526802221,0.4770487724393606,-0.04245119449943304,0.3946852542683482
3.60015966796875,63.424938557252474,46.04561442170883,69.04270084769627,0.32312486966252324,0.21363982807099818,0.04924801503270864
3.610188232421875,64.08457090653563,55.47765145791663,63.3801530068647,-0.1764940465033054,0.7900424164488912,-0.14350859948545694
3.620217529296875,62.75058032011878,64.72667016021936,56.97166654639771,-0.3335983328819275,0.9723726217597722,-0.13982465027570723
3.63024658203125,62.57261974129409,75.98543787485248,53.64099309953269,-0.18036708854436873,0.6331792453497648,-0.1117690608754754
3.640275146484375,64.1065572854739,89.62974477976094,50.71601922898809,-0.16097323676645756,0.1691036439910531,-0.34696079554110765
3.6503046875,66.36911891974316,99.75921584721334,49.044709505126406,-0.18586743952631948,-0.04300239864140749,-0.42074791628569363
3.660333740234375,64.79427537262414,102.31638403095275,52.80459545452961,0.0027659575819969176,0.08381547054499387,-0.2399360065832734
3.670362548828125,61.07854318111048,97.39621628119905,58.53086896031739,0.143006787443161,0.2891121254235506,-0.04169511543512344
3.6803916015625,56.71562324498144,86.16918845563896,62.27928360700955,0.08428045770823955,0.43220863697677847,0.12897270913273096
3.69041943359375,54.046310185259586,67.29480079757664,61.27592198774551,-0.20383271980583667,0.6429577120423317,0.27537206162363287
3.7004482421875,53.17836048138563,48.93029700633952,60.64815930112964,-0.3823264156937599,0.5431687195569277,0.36838206149339675
3.710477294921875,52.39241061359226,41.297700627728254,61.18099601866068,-0.1851870560467243,0.19523674089610576,0.19705109684169292
3.720506591796875,52.34338351572991,40.88510597544071,61.14572492178673,-0.08570435303151606,-0.03275485313236713,-0.109776133492589
3.730535400390625,53.67752095121392,45.06518857767769,62.06703547855141,0.2013911718726158,-0.057846624290943144,-0.24446692801117895
3.740564453125,55.8063987079531,47.38421197072085,63.34859753289924,0.42550154055356976,0.0025037995144724843,-0.3818728267073631
3.750593505859375,56.53950681723266,44.77875776464403,61.395259052923976,0.40778351303339,0.13795359570682048,-0.3525467789798975
3.760622314453125,54.87322069750552,40.41128892252776,55.23147094966186,0.1258311962366104,0.26885113542228933,-0.14465513917207717
3.7706513671875,52.58627870299391,40.28991987607122,50.73806366453431,0.05123918884992599,0.4348033296450972,0.021490531796216964
3.780680419921875,49.45619083657924,43.152728779884946,49.19525711971724,0.03408171782195568,0.2305807337388396,-0.019327800804376603
3.790709228515625,46.76339558649088,42.95747757717638,49.40369058752393,0.02421732641160488,-0.005908055000007152,-0.2705775208234787
3.80073828125,45.274130894577546,41.27904055091578,49.29084903224615,-0.02641629776060581,-0.09915420171320438,-0.3538917638480663
3.810767333984375,46.60199480130889,37.348375966600166,49.54010312562743,0.16926584881544113,0.01263502516746521,-0.46397827846407885
3.82079638671875,48.08392728514822,34.82797810625751,49.77542021800729,0.2498369306117296,0.306996741682291,-0.3930354412347078
3.830824462890625,50.655718903900635,36.14545329526128,48.6438593631167,-0.05994681144058704,0.218770761218667,-0.4093623066574335
3.840853271484375,55.53659257535925,40.06436653910988,46.10409450138248,-0.41585692937374114,0.18213585178256034,-0.7647299882769584
3.85088232421875,60.98565943858748,44.943730738761936,43.646773438024894,-0.5740262146353722,0.17030629777908324,-1.1265244880735874
3.860911376953125,64.3444391138871,56.33691316116633,41.79802222971544,-0.1909130324780941,0.33414632215350865,-1.2232155145436525
3.8709404296875,66.61087346541575,71.19541937973337,41.214662602893824,-0.03904021701216698,0.40801439917981625,-1.3065379408746958
3.880969482421875,69.07088220821174,84.74492325896206,42.028288397204086,0.204742235866189,0.18423399310559033,-1.276225804719329
3.89099853515625,72.51122117239048,93.80545606092912,41.508162661718444,0.4464613264739513,0.24142361479252575,-1.1383628099054097
3.901027587890625,73.5841004570269,102.50270476132152,42.439882426778226,0.5958318037301301,0.4617769690275192,-0.7755337063640355
3.911056396484375,72.039391704526,107.95431587001559,46.0991221236667,0.4900654904007911,0.34392975728213787,-0.4793319149404764
3.92108544921875,68.66178802787383,99.09913953563414,46.937886429217194,-0.22717969312369823,0.056440556885302064,-0.09148176738917826
3.931114501953125,66.9136147701874,80.208127197132,44.59361865700166,-0.92295421859622,0.02693009250164032,0.3472860819727182
3.941143310546875,64.50819289923815,66.16203441429754,43.14898925131436,-0.9842571208208799,0.2764449515521526,0.4650894545763731
3.95117236328125,62.50773977436814,56.78076275909585,41.86416919673243,-1.037377885633707,0.25054011044502256,0.32837562979757784
3.961201416015625,64.24249854052466,47.38403780089701,37.97797597410277,-0.7915922762393951,0.4680114795029163,0.16335165633559226
3.97123046875,65.6856150593108,37.376133855387096,33.822321543432345,-0.540320344388485,0.3949617331221699,0.34607904427051545
3.981258544921875,63.87662579725459,29.934717886739072,31.104158970766562,-0.24769874953925608,0.31558278371989723,0.5909118829846381
3.991287353515625,61.09691638997782,31.274514133950436,31.88592876278788,0.050279988428950304,-0.07448650118559598,0.3967898253321647
4.00131640625,59.24237659634679,36.694399013949784,31.190499392064694,-0.164019764855504,-0.6214803319886326,-0.08883680583834648
4.011345458984375,59.76655946419942,43.10287864422761,25.044672978772418,-0.4635398870468139,-0.7305667296513915,-0.4410363788157701
4.021374267578125,61.38650958059719,46.98800635734675,16.761629147764378,-0.69438833181113,-0.7510401933595537,-0.5031377379417419
4.0314033203125,61.62853050364742,47.86808989228123,10.50709771251041,-0.7499538594275712,-0.8077315101355313,-0.39807460444569587
4.0414326171875,61.491749135328746,58.59162349298465,8.746165661454402,-0.35623686566948887,-0.8038423937425017,-0.4195785802453756
4.05146142578125,61.752068135165445,67.93552035304802,7.203410343056111,-0.27555940088927744,-0.9246376416385174,-0.7448322786301373
4.061490478515625,62.37716021781584,66.99484620998636,4.911160864672574,-0.34459114380031824,-0.6518328001543879,-0.6528524985909462
4.07151953125,62.37542534976666,65.1527715115906,5.839154334653288,-0.06734159786701202,-0.21696458857953546,-0.33185061243176456
4.08154833984375,64.12789479644101,57.955234277447055,7.245544072498627,0.12719313223958015,-0.03145166157931089,-0.17612638223469257
4.091577392578125,66.01530146035815,45.364367938797166,6.86299158038856,0.10829846215546131,0.2165191828995943,-0.08685410758852959
4.1016064453125,68.53473967912241,37.303498208658596,8.340771736099342,0.3038596127003431,0.45531186466664075,-0.14704934083223342
4.111635498046875,72.80910621266224,36.559844287300535,9.559322734032868,0.46072073797285557,0.299357625105977,-0.4539385304868221
4.12166357421875,77.53855459022168,41.201087601918424,8.807995948915941,0.3592585515782237,0.1125892912171781,-0.6351438234210014
4.131692626953125,81.3116262198176,45.056404954405046,6.690122053816476,0.16382599584907293,-0.010336831227689981,-0.6983779859691858
4.141721435546875,83.21813692284326,46.996127452269896,5.179234690538173,0.29431027858853337,-0.04861673139184713,-0.41128421463072296
4.15175048828125,83.00103252988524,43.9768559900441,4.113652609256253,0.26814970915466546,-0.08958455546572804,0.010887304717302322
4.161779541015625,81.82170474703415,37.570275152355535,2.873844141634943,0.19617372948527334,0.04976707047075033,0.3484194699168205
4.171808349609375,80.35887630230334,33.92251017327268,3.589404854606509,0.1600947003662586,0.08320888295397162,0.34000819992423054
4.18183740234375,77.64632131494615,31.76410209365695,4.1446403237469545,0.07877426150739192,0.0040492753908038135,0.3400374260187149
4.191866455078125,77.17165048838694,32.25549322330435,4.736803637521897,0.39718262404203414,0.25265564129427076,0.30787586260437966
4.201895751953125,79.88238181523575,34.30939257842971,5.655507623344571,0.618820172868669,0.48871743679270147,0.05707505539655685
4.2119248046875,82.41472909153134,32.290439886192715,7.302419057717324,0.44886634178906676,0.5511993196688592,-0.13971592920422554
4.2219541015625,82.14954699700559,27.41559897931851,8.08288001473894,0.13756108925789595,0.2733375601213425,-0.18592589171528814
4.231983154296875,82.20605998219828,25.19150838554935,8.745126618926914,0.03878331964164972,-0.09478614269681275,-0.4212473902404308
4.242011962890625,81.7811061026076,24.15358942417963,8.36763316255771,0.045991351324319835,-0.33904878030754626,-0.39310383029580115
4.252041015625,79.04082054722014,23.28687427699815,6.653125053516633,0.08777005338966846,-0.5405140403296799,-0.17285832034945486
4.262070068359375,75.74944800883938,22.46069288744612,6.637641441555037,0.21628332831710576,-0.7781641279328614,0.013518822264671325
4.272097900390625,71.72813315385935,25.668761023614824,10.426627838803904,0.1058329488247633,-0.998945863647759,0.11182955889105796
4.282126953125,66.02603851773341,29.304991520736824,13.659954014523315,-0.09340484440624713,-0.905153992685303,0.10754559796154499
4.292156005859375,62.89393916060818,32.19454744534032,14.820842847936301,-0.28438129750937224,-0.4830376375906169,0.09738719204068183
4.30218505859375,59.595456395301426,31.78728034060539,13.174758720226766,-0.12442717465758323,-0.05790301238698885,0.24330372945070267
4.312214111328125,56.36134133273288,26.88776025271263,12.34701492490209,0.12176730779856443,0.11505712436912581,0.483672574493289
4.322242919921875,52.49377062087525,22.745774738118694,12.619977458666126,0.19474398894309997,0.13341757797868922,0.5763455974936484
4.33227197265625,50.785137328294034,17.34205691588477,11.47161604596459,-0.011121113473176956,0.09021777533534914,0.2698796016871929
4.342301025390625,49.31549235477156,7.297677198886042,9.678383176549946,-0.2061585324048996,-0.02116419505183585,0.02167757880091667
4.352329833984375,48.70942576405423,4.107965196111747,10.14998639439817,-0.18572423166334628,-0.21290300169643014,-0.17855273259878157
4.36235888671875,49.33146133705105,7.633589317361855,8.894359422102522,-0.3814256674617529,-0.5205085594594479,-0.38774493361115453
4.372387939453125,51.60233531154021,11.22865170303525,6.531704353754493,-0.46791591017395257,-0.47286757776457816,-0.6028910745918751
4.3824169921875,56.75476022892561,15.947559391158066,5.369583098083143,-0.29503040955662724,-0.2895116826677695,-0.8007470580756664
4.392446044921875,61.23895017376823,15.461215771307309,6.0261230792195715,0.0008037175983190536,0.07068875287044793,-0.7291185766696929
4.40247509765625,65.28784533261677,14.652722864158315,7.933086282277744,0.384006623865664,0.45469022563695904,-0.5315671290904284
4.41250390625,67.53792138108324,15.370526227055173,11.62849012327415,0.6098585755169391,0.5170940017756074,-0.3749403970956802
4.422531982421875,68.86829879742916,16.421084453484003,13.896993168347668,0.5101636910557746,0.4075138292465359,-0.35562896290421486
4.43256103515625,68.44921205033552,16.26477386678097,15.347081602729103,0.2146945978209376,0.19891469875648615,-0.2189233214318752
4.442590087890625,66.8717730313319,15.933033286340741,16.340846806209278,0.03362316039949655,0.11804017703421413,-0.15177052413523195
4.452619140625,63.9800758424236,13.594899023999883,17.499827455522894,-0.11939970188438892,0.2035535375382751,0.0989922891497612
4.462648193359375,58.03148650934108,9.790348760066673,19.94241921593534,-0.16361235309839248,0.26912301116622983,0.5952589722782373
4.472677001953125,49.7446707063639,4.897190139612136,23.81197068265227,0.08527794431298971,0.2526891051724553,1.1131786842882632
4.4827060546875,40.07644231356247,-0.4791566600183178,27.06716541654677,0.2214379346013069,0.07334551445692777,1.3594015160560606
4.492735107421875,30.982800169593776,-1.9795685408222312,29.609447202990143,0.15360679965168236,-0.22779329497739673,1.3547206647634504
4.502763916015625,21.600121495423068,-3.1243468789738613,29.38431050756818,0.1326502286016941,-0.4740189032241702,1.3691653697013855
4.51279296875,12.032158572090134,-3.1955291895130298,28.65598011561304,0.14461393037885426,-0.701618867586553,1.422223590672016
4.522822021484375,0.005130119067020876,-4.297043615357918,27.45767465215308,0.12374269952476023,-0.8879922108083963,1.5863970847845077
4.532850830078125,-12.130001885724214,-8.919159838978839,26.382616537171412,-0.039840135218203065,-0.7492015797555446,1.7159575306773185
4.542880126953125,-23.186156307497146,-14.450689283603923,25.2753848161044,-0.06636427726745606,-0.45940191045925016,1.593017379707098
4.5529091796875,-31.95007106928347,-14.565282782403811,23.232171291935522,-0.04282002781182527,-0.3287411021091044,1.2301982130378484
4.56293798828125,-37.60529694732478,-13.538894887900362,18.366076442293515,-0.026001287218928335,-0.43059214169085025,0.7462789703071117
4.572967041015625,-43.63804445626562,-9.007248788704493,13.698549705975765,-0.013287643857300281,-0.6035476388044655,0.6452887853384017
4.5829951171875,-49.31725112848284,-4.738918861730485,9.392277651275514,0.0521080806389451,-0.6346379197254777,0.6196177529871464
4.59302392578125,-55.25600157406596,-3.961925933259943,6.591068942925659,-0.13468465703874827,-0.6252773131188005,0.7969090873479843
4.603052978515625,-63.23632288332257,-2.6853648580450296,5.992947142873526,-0.21357640744596718,-0.36949192243143913,0.8219406527519225
4.613082275390625,-69.95760468701947,-7.780656096796923,6.534313912904261,-0.3301519918203354,-0.07825169893801212,0.7608616224110126
4.623111083984375,-76.47176100413573,-17.314529545982325,9.236120743828804,-0.322903335866332,0.21541998948603866,0.9270043707698583
4.63314013671875,-84.15802559415037,-18.14503615282627,13.657507953026805,0.149379537345469,0.5040480942523107,0.895848185005784
4.643169189453125,-89.94424767028335,-19.774920779371826,18.026662144320778,0.689451752191782,0.5757055460244417,0.6862696150243282
4.653197998046875,-97.39856586627353,-19.561892301801006,20.709401648403585,0.825475841140747,0.5052957927584648,0.8346253622800112
4.66322705078125,-102.69500190721406,-14.98090833113555,22.354556870386,0.8618494692921638,0.5218826242916286,0.6575725128501654
4.673256103515625,-105.84989360559963,-15.498961104208092,22.881488889379558,0.5255000841364265,0.5620754454050213,0.7007657578885554
4.683284912109375,-109.317696760431,-16.0424409640133,24.465151918264347,0.2634291103735566,0.7651366693817079,0.76008303925395
4.69331396484375,-113.18704673656741,-15.376058680282883,28.111468897243164,0.21324586031734943,0.9163589119844138,0.5779390041649342
4.70334326171875,-116.48231931296425,-9.603018869248025,31.121702311649738,0.17861732226759194,0.7613388845339417,0.3724322136670351
4.7133720703125,-119.30553702525401,0.8085105695913012,30.489271190736165,0.10497750103920697,0.5051213129743933,0.21657471247911453
4.723401123046875,-120.16482946435497,9.164051149027769,27.056845000710883,0.13318360482603311,0.2744055546790361,0.1228513036429882
4.73343017578125,-122.20308085609183,13.539860505894273,24.103414854536716,0.35712738476842637,0.08302256660163403,0.5223702616780996
4.743458984375,-125.83441923022082,13.693770281104047,24.479642164588526,0.9050906451255083,0.16736863689199089,0.9529343463182449
4.75348681640625,-131.2986661888794,9.858732614036839,27.996030162533483,1.1628846722215413,0.2815111489005387,1.3055249644398688
4.763515869140625,-138.82940054130367,9.27765768549259,32.74735222090989,0.9852329801157116,0.518236522874236,1.3235831836998462
4.773544921875,-143.06465058146685,10.24579772675417,36.09116353664343,0.6670674864262343,0.5521700643971562,0.9318933118551969
4.783573974609375,-144.32997044596837,13.154647228215662,35.321179236034965,0.39062691878825423,0.3730573598280549,0.4980453832387924
4.79360302734375,-144.04437291601346,14.629409720973769,31.581568703182942,0.25421792217493056,0.20991846946030854,0.22638123622238635
4.8036318359375,-144.6667670739417,13.913775796912036,29.043518218930394,0.30162323195040225,0.06263911926448344,0.22199732204973696
4.813660888671875,-144.4574081155025,11.58890149307111,27.796250544405197,0.42237084131240843,0.06008446634560823,0.31559155154824253
4.82368994140625,-145.7370577168827,8.381696522058766,30.301174611183182,0.20470891811847686,0.06371230145394802,0.4260965838372707
4.83371875,-145.98997962184828,2.2604805610065157,32.29827752826531,0.07682078935205935,0.35878508884757754,0.42537645286917686
4.843747802734375,-144.7144691151051,-10.289440074229613,31.948018597437883,-0.3152706490308046,0.5781269279524683,0.3871317701488733
4.85377685546875,-143.61782760234618,-20.933392579592276,30.09700659651316,-0.4487517754986882,0.6231742764249444,0.342183790397644
4.863805908203125,-141.2011564098339,-24.99212833348751,27.943949970112136,-0.19073241521418094,0.5807151908800006,0.29088848744630813
4.8738349609375,-139.88757442865708,-21.59027236263991,24.778177780378737,0.026051556101441383,0.4166729219317436,0.35738135952949523
4.883864013671875,-138.89785269716555,-19.82422108480098,21.277919274158766,0.159152158819139,0.32750030826777216,0.4925204823374748
4.893892822265625,-139.08267761610608,-22.55079845052422,19.576640387766357,0.16014496924877167,0.36802316505312915,0.5641103852987289
4.903921875,-139.2400861557182,-29.054904144276808,18.58571995807549,0.10157675268501043,0.3218728237748146,0.5346364535331726
4.91394970703125,-139.5444120643773,-37.38217515770797,17.045681347419574,-0.1790221036761999,0.21079086838066577,0.3889876271486282
4.923978759765625,-141.97423820123097,-45.252035232612556,16.556327321692134,-0.1849897799089551,0.15875731428265571,0.3318243089467287
4.934008056640625,-142.27684290221924,-51.78310309811376,15.105187038178517,-0.0964540028437972,0.1254039107352495,0.19551205070614813
4.944036865234375,-141.2447330167386,-53.26946495962984,14.730455539554937,-0.07366875506192445,0.1993354083865881,-0.06667991908788681
4.95406591796875,-138.4489726649123,-50.083642749587874,13.975466065495592,0.07302665776610374,0.46539106787145135,-0.4112970741122961
4.964094970703125,-131.0020174128474,-49.10577139630632,12.62918540744095,0.19803747753053902,0.5413444267392158,-0.7830833910912275
4.974123779296875,-124.09526182223881,-49.62261864099035,11.99689174408442,0.22778964171558616,0.49541561925709243,-0.7560106752485036
4.98415283203125,-119.35250140598701,-49.221707027278114,14.12389973653831,0.2336333993077278,0.7191343582719564,-0.38998306792676446
4.994181884765625,-116.15791264814533,-49.960569570933416,16.69995083201187,0.0967307739585638,0.9517115265250206,-0.20887480562627314
5.004210693359375,-113.26336727035314,-55.051522785788706,16.458650493919073,-0.2117719883725047,0.9468494734466075,-0.07297989601492881
5.01423974609375,-112.93548403924667,-57.56270330584642,15.462221516662593,-0.3966051164150238,0.7431891875982284,0.0912538038522005
5.02426904296875,-113.78308319448858,-56.448713112595684,15.04903434546455,-0.16963117499649524,0.6605524054437876,0.12562602905333042
5.034298095703125,-113.65031797740187,-52.707654579639616,15.805274597915654,0.09191431358754634,0.5303355414688586,0.01023380924463272
5.044326904296875,-110.3895378563136,-48.205668576914526,16.70214161518815,0.3070931877940893,0.42870062885582444,-0.32857962793707846
5.05435595703125,-104.55913811662897,-42.12949814032533,16.43891295476503,0.2693091083228588,0.6362503233581781,-0.7135825693637132
5.064385009765625,-99.56499941816402,-36.379452161131326,15.524606756994197,0.16366028389334678,0.8909306023478507,-0.7534551455467939
5.074413818359375,-99.71102886261889,-29.638468676773524,16.614296844725324,0.0927004955291748,0.8195961354523896,-0.26985855889916416
5.08444287109375,-102.37743226175432,-23.85970687476149,20.400395352615746,0.20529899296611545,0.650568187046051,0.1791685264095664
5.094470947265625,-104.73499499718929,-27.239636230826054,21.810870397358396,-0.04660743739604949,0.5720061069846153,0.25947598883360623
5.1045,-105.90080583567291,-36.27504247438392,21.997505316428995,-0.1990101219549775,0.5731435865819454,0.19401625919044016
5.114529052734375,-107.50646036613784,-44.13667558643323,22.367332739228505,-0.08658668882399798,0.5140910936325788,0.14375848259329796
5.124557861328125,-109.41980808852269,-48.05340316974743,23.05073926946518,0.2915986815422773,0.5051625217676162,0.2207224798083305
5.1345869140625,-111.17481153537912,-50.36744393979107,23.16244872088803,0.5883180670991539,0.5060854818314313,0.3624146775215864
5.144615966796875,-111.54336854299302,-54.40155856927571,21.2913952373912,0.868594851899147,0.6406447589248419,0.6921703635007143
5.154644775390625,-111.74619101039654,-58.64107406257554,21.64626796100297,1.2521227523371576,0.8238099537551402,1.0163120089903472
5.164673828125,-111.04897213011081,-57.75475456492884,25.81737057202867,1.6604925408259033,1.1039245337307453,1.121959372115135
5.174702880859375,-109.42320952272935,-58.575784284299395,32.19333167166806,1.5571645605593918,0.8648837224215269,1.0675026825234293
5.18473193359375,-107.38807269725402,-65.12114090554427,40.791894383837544,1.036671198669076,0.5474509269207716,0.99526980548352
5.194760986328125,-107.9001729604649,-78.06898708116488,48.00350180767132,0.2565235687687993,0.6034218204677104,0.9188596427589655
5.20478955078125,-108.98051764186415,-89.29846694463698,52.01738541683437,-0.47372225836515425,0.7827794397085904,0.8333373682960867
5.214818603515625,-109.28029464453601,-91.06907054355773,55.88225478887526,-0.613627864922583,0.8048767052263021,0.4514686332419514
5.22484765625,-108.29402215857534,-76.66051328184903,61.7162506231579,-0.732378455248475,-0.11077625044584273,-0.22465981925725936
5.23487646484375,-105.90722621349272,-55.17887166286359,56.99814377471526,-1.093188327921927,-0.4361006759792566,-0.8732980611540376
5.244905517578125,-104.12752480259752,-34.6439215835986,46.80086600427757,-0.9117059716120361,0.02742985871732235,-1.1463584848344326
5.25493359375,-101.67157319216852,-19.32371677525349,39.89720790445758,-0.37740854077488184,-0.07671557541191577,-0.9448645832397043
5.264962646484375,-98.06418829145878,-12.18287267254199,33.75680978400817,-0.6089633802428841,-0.2451367900967598,-0.5093665493287146
5.27499169921875,-90.2423649369869,-11.183986534731597,24.99302991845795,-1.0891975047200917,-0.07606500254869461,-0.42386268730536103
5.2850205078125,-80.72874470623788,-14.96639247160198,15.415865022765717,-1.0409931535214185,0.19001169972419737,-0.3994645974993706
5.295049560546875,-73.49924901696784,-21.797722283206124,7.992266456341319,-0.5317620671406388,0.18033084818720815,0.01243972179107368
5.30507861328125,-71.81284799013501,-32.27331318684891,4.504729604337319,-0.08586948046535253,0.0777601160287857,0.47957807172127065
5.315107421875,-72.88593901063572,-38.055218583426445,4.2604060537631465,0.08445172262191772,-0.04916238257586956,0.8204372624516487
5.325136474609375,-75.95516647645098,-40.60283816270618,4.229814917131129,-0.1288347619667649,-0.14746552041769026,0.7470996390402317
5.335165771484375,-81.03771514353258,-40.29331448008871,5.309908589078388,-0.4540902139171958,-0.40582185757160183,0.5452326298167929
5.345194580078125,-83.37378327364951,-37.26863350804027,5.847066255033102,-0.4480579480156302,-0.15052432346642017,-0.008763170436490327
5.3552236328125,-83.50979966078114,-34.365372808867136,6.5900930796479935,-0.2560705643042922,0.32693244525194165,-0.23173954838514327
5.365252685546875,-82.67894129919495,-35.37103620188147,8.610056212995326,-0.43420653279572724,0.43115445174872874,-0.1758639319062233
5.375281494140625,-82.74583617192604,-42.82899830379385,11.807276301214758,-0.4985732065051794,0.45923020715415475,0.016019954898022114
5.385310546875,-85.53430871190794,-55.20822440082172,12.887309355233132,-0.6236074071452021,0.23213526970446108,0.32866321456730363
5.395339599609375,-90.9324394394008,-61.40948633696511,13.835384008260508,-0.4415823222607374,0.10960428405702113,0.5338157848000527
5.40536865234375,-94.54230369877925,-60.33531614657555,15.96965676067035,0.05742752209603786,0.26690146265923975,0.4515501740455627
5.4153974609375,-93.96803505374292,-56.29632817711811,17.657125004560992,0.48757308906316754,0.36319150711297987,0.3307178820747882
5.425426513671875,-92.45509351107174,-49.78947674731918,19.899322429819854,0.5734387701362371,0.2715186010658741,0.32338147477209567
5.435455810546875,-88.96075507131488,-44.71917802451401,21.12904505591458,0.40449937679618597,0.08568623285293579,0.3073470164246857
5.445483642578125,-85.01892995789545,-38.55508939292841,20.431201213319795,0.04830138183236122,0.08591828804314136,0.18003624915480612
5.4555126953125,-82.58055925439008,-32.645039402237686,19.886157240194656,-0.029263796146214008,0.38288580314218995,-0.016752981880307195
5.46554150390625,-82.88689323866515,-27.24152819322615,22.32898464213347,0.34095117986276746,0.5303431402534247,-0.19496376917362213
5.475570556640625,-85.96738368642177,-20.019130778051046,25.74315373650731,0.46709626435413953,0.283596576872468,-0.06660261606797575
5.485599609375,-89.06086515397975,-12.202933791907963,26.694587135059038,0.3402076680190861,0.2813917603045702,0.011176058530807494
5.495628662109375,-90.81155192128074,-8.152214118777385,28.06502531843437,0.2767573785021901,0.47186581684350964,0.12465879145637154
5.50565771484375,-92.35184837157783,-5.042991199616637,30.5755194044805,0.5046788299039006,0.563202038282156,0.37043548689186573
5.515686767578125,-93.24070869959577,-3.639869707289148,32.73883497501488,0.5959874326832593,0.31917817786335945,0.44159898113459345
5.525715576171875,-95.54434026134432,-6.929842910663706,33.73398670689657,0.3848552035190165,0.009620645782351493,0.7143769346117973
5.53574462890625,-99.32982917485131,-15.208560243719367,31.834422306256815,0.20185703581869602,0.031308161455392836,0.9795029120311141
5.545773681640625,-102.25358044153448,-22.84681031141611,28.9609958733783,0.07503186010867356,0.11930091768503188,0.810658503498137
5.555802490234375,-104.75214560219518,-27.926734478309122,27.303141622181542,0.015391192007809876,0.1460264275252819,0.4273746409490704
5.56583154296875,-105.49812520296564,-31.18655495781901,26.13365784947174,-0.09165580878183245,0.34273148740828036,0.07905190940499306
5.575860595703125,-107.36574480885724,-32.96976025575843,24.961537623742313,-0.2090634600661695,0.3332160555660724,0.01921674164533615
5.5858896484375,-108.34160125633365,-35.48491253081851,22.22386632325968,-0.3898071268379688,-0.03952420113682747,-0.01329378133714199
5.595918701171875,-108.52596172241063,-35.05072082037538,17.21043746303133,-0.5665333746619522,0.09992518608570099,-0.06075052903890609
5.60594775390625,-108.32050280198747,-34.23377213903392,12.59147337171237,-0.45972164393290876,0.42178982655405994,-0.010464110869169235
5.6159765625,-108.16002750743803,-34.581336560233765,10.848690840828379,-0.209040079190582,0.32439386668503284,-0.050539808408916
5.626005615234375,-108.24787057035357,-30.724994679371644,10.108769617851728,-0.181588154771924,0.13538929817676543,-0.16667992397546766
5.63603369140625,-106.03479365662105,-23.774614670534177,8.254994805407737,-0.4502466902315616,0.2085977422505617,-0.4024602721840143
5.6460625,-106.71221864869209,-22.08759380403417,4.513358694579984,-0.761979082133621,0.21839842077493665,-0.38851796381026504
5.656091796875,-112.63204605517969,-29.491797194536673,0.9268108867589501,-0.669988634569943,0.13501695773303507,0.011278934383392333
5.666120849609375,-119.34813008491821,-35.08319153968962,-2.0448753945713083,-0.4680228776797652,0.07572130367755889,0.14897534045875072
5.676149658203125,-122.6840491170658,-35.88742240879653,-4.58421294259558,-0.2700048355020582,0.2615641932845115,-0.07567571097016335
5.6861787109375,-123.08891541030746,-35.014906723462424,-6.199871138873648,-0.1224861235924065,0.5759539678275585,-0.1549398018211126
5.696207763671875,-123.05834348358249,-35.84016091483463,-7.01137914765438,-0.13249182316958905,0.687713384091854,0.05656769039630889
5.706236572265625,-123.1794017564318,-37.99530416402709,-9.156671129629569,-0.33533041737154123,0.6339607511162757,0.20016367590427397
5.716265625,-121.30896811260214,-40.106416598735066,-11.983651422378351,-0.5606476776242256,0.46578678919076916,0.1707838521629572
5.726294677734375,-119.05899451697323,-38.46441521660191,-13.113766838485844,-0.6251730490267277,0.3866314194113016,0.08508125269711017
5.736323486328125,-114.56804268485229,-33.61038077348685,-15.009914436993302,-0.7300728086546063,0.16615093166530132,-0.12792495364546774
5.7463525390625,-113.9762955857299,-24.59797006931712,-18.800087152723634,-1.0518557621888815,0.10840016896426677,0.29783728367090223
5.7563818359375,-111.26224478694446,-33.00893480574304,-19.011681290568752,-0.925435367887467,0.3909703253984451,0.6991887178301811
5.76641064453125,-109.9049086139445,-43.51863225900628,-19.07108686087494,-0.6972466438516974,0.5794441480308771,0.7744301290363073
5.776439697265625,-109.02861583399938,-47.48607058181325,-21.306254313930562,-1.074624278031662,0.5223661700248718,0.697310648998618
5.78646875,-106.57454935578131,-45.98933024785334,-25.493749378964292,-1.3058596032217145,0.46386195860803126,0.13950550132393835
5.79649755859375,-102.86040859834426,-40.17476971685397,-29.72277028660441,-1.1727613385915756,0.31649989856481553,-0.23431612087488174
5.806526611328125,-99.01699968067555,-32.36718730680156,-30.957145979071207,-0.921522213031724,0.24986206505298614,-0.1584866806477308
5.8165556640625,-93.81173983496552,-30.586867763786476,-30.858572688969584,-0.638823242586106,0.34445231985151764,0.13500117564201355
5.82658447265625,-90.78940844799156,-31.83043347578153,-35.13777841153637,-0.6604709377054124,0.34531682772636413,0.25362287889122964
5.836613525390625,-94.24493092269525,-34.90593447034946,-39.94457185125703,-0.7179859919544309,0.2911713960409164,0.542612254717946
5.846641845703125,-100.09349213538293,-41.911232615208405,-41.29208621223051,-0.34402342691496013,0.3076975834280252,0.7277887893706559
5.85667041015625,-104.48762603601894,-43.456808801733914,-41.59790451722324,0.008229191423952578,0.41885903379917144,0.673850862956047
5.866699462890625,-105.89783470338395,-40.28742685702416,-41.09704674538621,0.12971578258499503,0.43170799397826193,0.599230213996768
5.876728759765625,-105.4003988563211,-37.848537059141854,-38.160447892874245,0.5108864523723721,0.36722237006425856,0.6731763246953487
5.88675732421875,-104.13685484100375,-32.291706886283755,-35.04856931078683,0.7241545975867658,0.11226502769887446,0.7667752303689718
5.896786376953125,-100.13616715731717,-23.956041570362643,-33.25811718213803,0.6660610858626663,-0.02875555436313152,0.5254851788282394
5.906815673828125,-96.78268770881348,-17.213676680245207,-32.514104675848536,0.4309630938950926,-0.22537761213779448,0.3323538857787847
5.9168447265625,-94.64722223461982,-18.164497069318926,-32.155263612328994,0.36534956192970275,-0.29016046543270346,0.4794681085407734
5.926873779296875,-95.53503754369476,-20.725044489150207,-33.50344050165196,0.21543810966461896,-0.33766894332170483,0.5675076265215874
5.93690283203125,-97.74815543856229,-21.633674799720758,-34.559794143591546,0.022721973287314175,-0.3165560126662254,0.6369593484103679
5.946931640625,-97.98079168169292,-17.72098556575332,-34.66463754735124,0.05782075919732451,-0.09090835141539573,0.47211014699339865
5.956960693359375,-94.94400078424604,-12.04322006345097,-33.22706031198198,0.14741225586049259,-0.15589432606697082,0.18794073866903782
5.96698974609375,-91.65059284949263,-4.613691185279709,-32.59573568171395,0.21858736747577784,-0.2789513814151287,0.01239361762702465
5.977018310546875,-89.02922771774425,1.2940085800062997,-33.66646004166724,0.1064365407411009,-0.4262012132555246,0.29235972904264923
5.987047607421875,-85.09842652964524,0.45060961757798507,-32.16076532970544,0.12417802220210432,-0.43418227513730523,0.4346282653391361
5.99707666015625,-80.9769401202978,1.876299282222812,-32.26284592194587,-0.20501557291485367,-0.5943503330007195,0.3863572786450386
6.007105712890625,-76.85420378633225,1.4909178111358898,-34.21841445868514,-0.6750053667534143,-0.778046858228743,0.3110714437752962
6.017134765625,-75.57185626022986,-0.3770631544514927,-39.59300152410896,-1.0429132348638028,-0.7491174086034298,0.4791355155855417
6.027163818359375,-76.01170678240035,-5.431597800652273,-47.34126374121981,-1.3931106011733412,-0.7598626745015382,0.7946177615404129
6.037192626953125,-76.9851385127214,-12.274676391402485,-49.03271569294386,-0.8508287474535405,-0.5743535468935966,0.8956938712269067
6.047220458984375,-73.66221050037518,-14.32564218027933,-48.29392486627485,-0.27878566945940253,-0.3999158483982086,0.4830120647579431
6.05724951171875,-71.01432374407965,-3.491900915996815,-44.78710425580979,-0.07035415062122047,-0.4194967471808195,0.17489011843800545
6.0672783203125,-63.4528125592553,3.116400594204786,-42.5160083001726,0.8790066480591893,-0.17060586524754762,-0.12799042009711264
6.0773076171875,-57.02062534236836,5.4428471222152845,-40.872944823623506,0.4890560210973024,-0.08510112644135952,-0.8070768456190824
6.087336669921875,-52.3487383840392,6.890845091823873,-36.9913619786836,1.0308854548744857,-0.32659459159970283,-0.5507353554189205
6.097365478515625,-43.47415065203658,17.491827596457515,-35.69889552732584,1.132836447699368,-0.19635989970713852,-0.9946429057568311
6.10739453125,-35.829044781960434,30.215431831437428,-35.16811469673498,0.7073885370291769,0.0007343056239187717,-1.293321900948882
6.117423583984375,-32.177584670536596,41.954689693802614,-38.60295877372645,0.530805935459584,0.03752455175220966,-0.9200076437503099
6.127452392578125,-29.24813019589647,34.3163866921398,-42.8250231336969,0.3417078434489667,-0.14842472083866595,-0.4532084626466036
6.1374814453125,-33.878120773856764,13.007900613897938,-46.06908636679157,0.3542671730317175,-0.15942980671674012,0.8600228383868932
6.147510498046875,-39.781057122526924,-1.1070844451130337,-49.948930928587714,0.05422463440150022,-0.5330189353339374,1.3309937522172928
6.157539306640625,-40.08888691823023,-5.4196910733816495,-53.127489232447374,-0.20705168185234069,-0.786769678388536,0.6002747546136379
6.167568603515625,-41.38220372813966,-3.347659913887428,-56.779454777869795,-0.40738194649517534,-0.8127595674306154,0.15271277342140674
6.17759765625,-42.8213792277747,2.635189221185058,-58.1189675722306,-0.4499630509845912,-0.684577570284158,0.22362872264385222
6.18762646484375,-42.45705693744622,10.660468756549399,-54.35820394351905,-0.0022493863619863987,-0.3674726915635168,0.24669044927954673
6.197655517578125,-41.53245081440701,23.094657385828363,-50.4836459481405,0.13293123750016092,-0.23945289924144744,0.04430909732580185
6.2076845703125,-36.120574331209504,27.81988129138615,-48.16385415881571,0.17577128518670795,-0.14864420880824328,-0.30352526617944237
6.217713623046875,-34.249054687301815,12.120068229350077,-52.199300675188496,0.6348433791697025,-0.30970526998862624,0.11835808387696742
6.227742431640625,-42.75930988369221,-2.5376671398853814,-58.794985545332615,1.0600447677329181,-0.5516514473505317,1.0955506731390952
6.237771484375,-49.899784302414886,-13.719200782931297,-62.71208537395658,0.9960400592036545,-0.6395913043491542,0.898576733186841
6.247800537109375,-51.40074569328187,-19.23096451387201,-62.37265229296363,0.877646611752361,-0.4895775607533753,0.26684593307971954
6.257829345703125,-50.59323291827877,-19.36469278763169,-59.08239990560675,0.6993465387403964,-0.27113566616289314,0.07928338007330894
6.267858642578125,-49.827053033038005,-14.672359658022101,-55.32863722079446,0.7614867685720325,-0.26826851322874423,-0.04583879111111164
6.277886474609375,-48.43780280114117,-6.474225323681074,-54.26494454059169,0.6656489979304373,-0.38837775162197646,-0.3819967453479767
6.28791552734375,-44.24014953726434,4.506451665781809,-54.09685700021227,0.41456820473745465,-0.5804507677901536,-0.7369377259880304
6.297944580078125,-40.760260362696634,7.710979629526331,-56.46662528369404,0.3659256082519889,-0.5830971175804733,-0.7809130613148212
6.307973388671875,-43.430126667741256,3.84269943176867,-59.954136949375474,0.7058380927167832,-0.41560061652511354,-0.21434651503562926
6.31800244140625,-49.16689817428335,-0.7699712271995042,-63.8620228528091,0.9734155549414455,-0.4709951714888215,0.09094225368499756
6.328031494140625,-53.58198026510378,-2.58860583694169,-65.4008576426238,1.0898279115781186,-0.49409489204734564,-0.023470891958475112
6.338060546875,-53.98147119946866,-4.707075239159416,-63.779158997798504,0.9299100290834903,-0.42086770674046126,-0.16003566365540026
6.348089599609375,-55.82744252078591,-4.707868394876784,-59.02470529768765,0.8666462020494043,-0.19451518515590577,0.19716274052262306
6.35811865234375,-57.953636013181274,0.10545566618576391,-56.32814319827203,0.4711803187973797,0.023755590651370583,0.38539164848327634
6.368147705078125,-59.289088260080504,2.429781313737268,-56.97059420669802,0.3022825726419687,0.11547103893226011,0.25794366469979285
6.378176513671875,-62.484366867028356,-0.9258399326797504,-59.980276083329116,0.32940468058437106,-0.0540350346801104,0.20375907004773616
6.38820556640625,-67.70697539323022,-9.261553806976993,-63.89327779845108,0.2725022052757442,-0.2809701190927066,0.3602694821864366
6.398234619140625,-71.51715544058682,-12.568727988002582,-66.40963560189967,0.3672254388041794,-0.5620762856552377,0.4140548483878374
6.408263427734375,-71.50768879839718,-10.71176433098984,-67.10795414264177,0.3606615502439439,-0.8431517830848694,0.27134090641140934
6.41829248046875,-70.9810812133892,-5.701190489834555,-66.93403020561657,0.008080868994444608,-0.764900011081621,0.20964988165199755
6.42832177734375,-71.43304849114729,2.7672795302044038,-66.54188172460945,-0.4725979305103421,-0.6200599437966943,0.17334522708356379
6.4383505859375,-70.52354733145756,7.3871671911651955,-65.77338982033464,-0.5016512987762689,-0.535042769311741,0.20792554207742214
6.448379638671875,-70.08999424370182,12.006343872122072,-65.63729147093296,0.015101415280997753,-0.42828130746521054,0.2031120043158531
6.45840869140625,-69.51583488169221,13.827373050137728,-66.25110691126368,0.25918080527931453,-0.42999161851443346,0.053823360124230384
6.4684375,-62.90144553850602,4.067501021034476,-67.58149798798793,0.4152222847320139,-0.3337976548463106,-0.5260562567144632
6.478466552734375,-60.06076303250855,-5.769199110287195,-71.77101308146868,0.5275123007416724,-0.4091610849969089,-0.4343640614449978
6.48849560546875,-61.58985797256681,-13.402850326238402,-74.0880454743688,0.8530280110634862,-0.7346271109580993,-0.04176759614944458
6.4985244140625,-61.211977756735855,-15.04623738299943,-72.18317401674393,1.1412519554756582,-0.8171095793336629,0.03908990137279034
6.508552734375,-59.440670648330595,-10.593291284741385,-67.78623973854823,1.0174323913224042,-0.6584988339148461,-0.060870356026291844
6.51858154296875,-57.449233373165,-3.434171943688456,-62.51144173689829,0.763299224821478,-0.5264285971581936,0.09579729250073432
6.528610595703125,-53.41421032852076,5.752127479343571,-57.95571239068895,0.5555382256560027,-0.3327498993590474,-0.16456337021291256
6.5386396484375,-48.80289690284586,16.221135788173758,-58.04188888744701,0.15570537936612963,-0.20064444515854118,-0.5728004722326994
6.54866845703125,-44.57180644788723,20.942567231194893,-58.76821803397533,0.1579303619392216,-0.11173457408398389,-0.5578881497830153
6.558697509765625,-43.32992437752259,17.263596825341537,-58.31858668091339,0.4242427726641297,0.048223494290560484,-0.12598258740603924
6.5687265625,-46.06698608362179,9.012823930614516,-56.68282809168162,0.7523654506139457,0.19858356710597871,0.3796586577892303
6.57875537109375,-50.23303264711439,0.959158876111542,-54.181670874230896,1.0914717332623898,0.3136611680075526,0.7025760221809149
6.58878466796875,-54.86170158347029,-6.98061981761405,-51.76524898362335,1.200789455462992,0.38256022444963456,0.8332675179302692
6.598813720703125,-58.451836841431174,-13.6422254047589,-51.33462946211615,0.9751486623443663,0.24697072752565144,0.6699865887433291
6.6088427734375,-59.023414391934516,-19.668038564144883,-52.18040837194424,0.7351542035721242,-0.09104659084230661,0.06883505129516124
6.61887158203125,-59.03308593979926,-21.94135433126232,-52.86738879866412,0.6967575451605021,-0.35623131271153685,-0.32837972145080563
6.628900634765625,-58.862508795467356,-21.257256244372183,-52.821039134956415,0.7410317173033952,-0.5078603825494646,-0.4534983855038881
6.6389296875,-57.72093829834811,-21.643578574017276,-53.303018263927534,0.7778115881681442,-0.5506035457327961,-0.5134323374629021
6.64895849609375,-58.10603802413176,-23.15914632442433,-54.55553835392447,0.6924610170103609,-0.451525331865251,-0.45122401083111763
6.658987548828125,-61.59844352035351,-23.933408031000514,-55.816906953991165,0.8227554762661456,-0.18577040889263152,-0.22250351800620555
6.6690166015625,-67.61696033015863,-25.00354840977977,-54.722037875321874,1.0064213140949607,0.012417875285446644,-0.011057400587201118
6.679045654296875,-75.46860429054679,-23.861687629620793,-51.659722560946655,1.101434324350208,0.2547644501417875,0.39960897440612314
6.68907470703125,-85.03381294009692,-21.095010223280408,-49.007956257202565,0.9417737776175141,0.537955368822813,0.8539537476062774
6.699103759765625,-94.72735401396241,-18.24953633958017,-47.06990715568437,0.5452884151246399,0.5476096246138215,1.017627475503087
6.709132568359375,-95.41855549758937,-19.020618593097712,-47.30544964430685,0.024311726696789264,0.20987959875464438,0.4794692775845527
6.71916162109375,-84.85559281408378,-15.71767059162107,-50.83987446430252,-1.006134094651416,-0.6286854410618543,-1.616729094684124
6.729190673828125,-76.26700559319708,-13.166217568669664,-51.955138487833466,-1.0011884549427776,-0.754529204519093,-2.14406662338078
6.739219482421875,-71.3934812052854,-17.264194466893915,-49.70036326921802,-0.263242794021219,-0.3419938207834959,-1.0424386761546134
6.74924853515625,-70.4570964210225,-21.83678584261672,-44.86245490273337,0.843692319702357,-0.07793050415962934,-0.5467360566496848
6.759277587890625,-73.84910496663423,-22.38552153298825,-38.56916641280781,1.5145365481883286,0.00798515353500843,-0.4153793749898672
6.7693056640625,-81.67372869866583,-20.34077292380341,-33.32842714945414,1.445581085383892,0.16129706189334392,0.18633271895051
6.779334716796875,-90.14952900578808,-15.60531397977436,-26.91436383952983,1.2701897394254802,0.25953619458824395,0.7143108836382627
6.789363525390625,-97.66326301736821,-8.171745898482683,-18.47604078038343,1.4267226556569337,0.18343349037766454,0.7980395526826382
6.799392578125,-104.72231816608974,-0.27141618960811553,-11.508222444821273,1.2082737468037754,0.06761398506760596,0.7953478293806314
6.809421630859375,-110.9449073679165,6.521063772801259,-6.060129310436595,0.9873318520911037,-0.05221124875247478,0.8101841639846563
6.819450439453125,-113.35315693718212,7.803229872003815,-2.9145298709734164,0.724762208091095,-0.35734570369422436,0.40909985632896423
6.8294794921875,-112.6675971898096,4.8880983040532024,-2.2733204628724932,0.4020296256817877,-0.5747907692670822,-0.19966917038559912
6.839508544921875,-109.65372840721729,2.4068666694021097,-4.555607683464744,0.13843688571173696,-0.6756774938613176,-0.7696668601572513
6.849537841796875,-106.44771274289417,1.5802476141346653,-7.8010126218444995,0.2152972398892045,-0.6134761814922094,-1.097830308508873
6.859566650390625,-104.68910295615596,-0.46476577160221827,-10.556047970744597,0.40899884363990274,-0.4768436052560806,-0.9542331539571285
6.869595703125,-104.33121470402564,-1.7909735709032506,-12.084330972065278,0.4058670484201982,-0.48917584808468817,-0.6685398970663547
6.879624755859375,-106.17923849718848,0.3525657738587428,-13.259532466884025,0.17183873151075094,-0.603309007743001,-0.2046019506126642
6.889653564453125,-108.27288955328332,2.5747896449112235,-14.175856985554596,-0.29564958263458685,-0.6759913821160793,0.08301613686084747
6.8996826171875,-109.73284931856271,1.500296407918258,-15.846984855629628,-0.6865929286945611,-0.6318102950841188,0.2790899131029844
6.909711669921875,-111.43326589357241,2.0407527350769707,-18.2376859613702,-0.8990544337011873,-0.5152893635064363,0.40300329301953314
6.919740478515625,-112.12001409386052,0.5654566337899578,-19.44133092521382,-0.6160135910153388,-0.4562777870893478,0.1805085428416729
6.92976953125,-111.52459918315382,-1.2507357030762725,-19.08425888068931,0.044225291499868036,-0.3491413544505834,-0.060976154488325114
6.939798828125,-110.17230368976134,-3.051745810078034,-16.29953099191987,0.6726077310271561,-0.19177637130916117,-0.3604863398075104
6.94982763671875,-108.01700334621796,-4.430469226360001,-11.784045120300252,1.0405548351693898,-0.09292495193481445,-0.5847738186210394
6.959856689453125,-105.19821842669955,-5.392230724710436,-7.513613629495995,1.0096591269724071,-0.1130786821693182,-0.6896095731019973
6.9698857421875,-102.62026597731578,-4.5067786610883225,-3.163906267429517,0.696753307376802,-0.17812252448797225,-0.6395417661190033
6.97991455078125,-100.5870279444297,-3.3017922054030304,0.706470318155661,0.365287967935577,-0.1844552346408367,-0.6027823535203933
6.989943603515625,-98.41903027921929,-2.3792455978419897,1.8679845941253792,-0.16358524589575826,-0.41339375413060186,-0.5532604899823665
6.99997265625,-97.96816266191757,1.6273154082005752,0.346790128543983,-0.6381628789812326,-0.7420797650516032,-0.39435529166162014
7.01000146484375,-100.57954888728855,6.190191907046094,-2.859897962566835,-0.9101991472456604,-0.8472095340430736,0.05670914469361305
7.020030517578125,-101.91480305870185,8.300360921874962,-5.58948189218535,-0.8238790734685957,-0.8289169215053319,0.22448621625602244
7.0300595703125,-101.39133053052291,11.103242599684645,-6.537767427303349,-0.5024394534792751,-0.8155109119653702,-0.0907832637310028
7.040087646484375,-99.23003328088826,13.270432595025719,-5.665788765592732,0.07186482917880639,-0.7179588847517967,-0.5760141735821962
7.05011669921875,-96.38881118994635,15.991899271702497,-3.832796511245798,0.6279328691288828,-0.32448037592470647,-0.7993664173722267
7.0601455078125,-91.40948717179117,14.664933534847005,-4.024065286781426,0.6176761904653162,0.1663426548451185,-1.1215227342635392
7.070174560546875,-86.91702586786366,12.804297797381736,-7.130014410895624,0.16370907320482656,0.40719431496858594,-1.2547639144957066
7.08020361328125,-86.55412425688255,12.553305420856693,-10.82001685291902,0.012823917069379239,0.40239948190748687,-0.7161012741863727
7.090232666015625,-88.44790348729529,15.756227009485793,-12.108564483240482,0.20963915932858362,0.23167583549916743,-0.29163609094321724
7.10026171875,-89.0056908858644,20.00947801320653,-10.859983704847348,0.37806364368274803,-0.11335048484802246,-0.2902881834656
7.110290771484375,-88.35098993316198,21.1471262741949,-8.074450707529497,0.5911633004624396,-0.3209796743273735,-0.2687853767096996
7.12031982421875,-87.24816026901505,21.660920424319936,-4.7610196463373535,0.7778918137975037,-0.33037177205085755,-0.2780427421376109
7.1303486328125,-85.61441317049385,22.955878187177458,-3.459441722626799,0.7327172587487846,-0.310361249679327,-0.6279188406035303
7.140377685546875,-85.2798295238116,21.551855963653175,-4.77282690897819,0.4855968205541372,-0.10629998181462287,-0.625161358588934
7.15040673828125,-84.94536199034525,18.995372506378054,-7.95999808138124,0.22706377512644976,0.19635785388052462,-0.5824997362092137
7.160435546875,-83.25906341634997,15.15394263602136,-10.655036194838301,0.14536823761118575,0.3893102832317352,-0.6769026517421006
7.170464599609375,-83.15350284272742,14.410264809001202,-11.884855297355054,0.23993138520708307,0.46536827151775356,-0.6925991103067993
7.18049365234375,-84.19281857778242,15.347658753713969,-10.839857698684261,0.43505657375380397,0.39245325743257997,-0.4013914739087224
7.190522705078125,-85.09627502005668,18.891521187595302,-9.616328346619442,0.6587121113393455,0.24874036754667758,-0.27174539555907246
7.2005517578125,-86.68518875686591,23.37998512331106,-8.303706007020976,0.6818398889485746,0.04690320547223091,-0.211599846675992
7.210580322265625,-88.53571239926498,24.673433414362005,-7.520236351669969,0.6249517344262451,-0.011741291198134421,-0.15420008936971424
7.220609375,-89.44519989857638,23.71866005330614,-7.566226576672604,0.7646352957308292,0.06677051998078823,-0.31393355520814653
7.230638427734375,-90.72108606572392,22.272406770143668,-8.887094662146566,0.8252312187299132,0.08035422417521476,-0.47148441631048915
7.240667236328125,-90.73488304784735,20.960501600408055,-10.382638859228082,0.6385278398361056,0.0070399816393852226,-0.523496050837636
7.2506962890625,-90.79856090147938,17.86676741585078,-12.334887924030733,0.3926936420597136,0.061844169494509695,-0.5631655056640505
7.260725341796875,-90.37418075777897,16.642934120367894,-12.817707166269765,0.3427352137353271,0.21333938381969927,-0.6316955826632679
7.270754150390625,-90.31871279152931,18.28901824807743,-11.790643083038484,0.37345151024479417,0.2230190663129091,-0.6555173338860273
7.280783447265625,-90.82021943133749,20.03372347721278,-11.099083868253754,0.33759262668248263,0.1079980179041624,-0.40054099455922837
7.2908125,-91.5203138212638,20.311652412277063,-10.83097247634772,0.35641682534627617,-0.04066168073415756,-0.28002105647325515
7.30084130859375,-92.15344503656729,22.357992455538515,-10.617517111953774,0.43553986375872045,-0.22056056724488735,-0.3485502566896379
7.310870361328125,-91.70976960846161,24.087382693007402,-9.19163145289628,0.540076050771214,-0.26923955021798607,-0.5722292482160032
7.3208994140625,-91.81337674798154,24.74793541028121,-6.610088458443205,0.7104680906049907,-0.097000823071599,-0.5974427460581064
7.33092724609375,-92.79857006405334,25.32733694247881,-4.727482990625768,0.6831163386251777,0.0926350290775299,-0.3935381300598383
7.340956298828125,-92.89492354267472,25.53081340049537,-3.1332752168795373,0.575135527584143,0.2504389881581068,-0.3102601273924112
7.350985595703125,-91.90865788690321,25.989522074964253,-2.5959064553907876,0.5414663360858336,0.3535954112499952,-0.46442141912169754
7.361014404296875,-91.31340007054743,25.690313685540797,-4.134038162607802,0.3811732270706445,0.4213923516690731,-0.4851250383239239
7.37104345703125,-90.10744138012247,22.926337619017154,-5.587152370791553,0.21577371656084432,0.3850859435349703,-0.4936754245262593
7.381072509765625,-89.84115962514035,20.7817145686938,-4.9338780738520365,0.39417712208312,0.18267185835540295,-0.4639373619318008
7.391101318359375,-90.79313773127839,20.428870411265528,-2.4347944591446455,0.5598331829035654,-0.057880526560544966,-0.3337064694315195
7.40113037109375,-92.50280921261344,21.180747880384285,-0.07863896279222529,0.6131077865712344,-0.13586743708252905,-0.2712526436060667
7.411159423828125,-93.67564148556384,23.21318678113747,2.447138531965563,0.5716607276130468,-0.11956278349161148,-0.26634088790072125
7.421188232421875,-93.52481041812246,24.645192289691295,5.071711291302893,0.6861129631578922,-0.038812253475189205,-0.34378538037538525
7.43121728515625,-92.73328711596636,23.29148977732979,7.073823725254399,0.8363490442674607,0.18041326577365396,-0.49602998829577116
7.44124658203125,-92.33956769145014,21.221421656891714,7.102082779171679,0.7900353291209786,0.23535189366340636,-0.43052265665121375
7.451275390625,-92.36087788166058,19.879801749171957,5.14682373537917,0.47827981207165865,0.18927111048996448,-0.35575653480663894
7.461304443359375,-92.56268948106695,19.712108652217097,3.982547555024681,0.22208229691945014,0.17614333336949348,-0.2812649190545082
7.47133349609375,-92.94547377272198,19.4031843186993,3.8703736507382693,0.35892362053543325,0.174016258212924,-0.21967501658201216
7.4813623046875,-93.003687475018,21.971391795684745,4.535977292903304,0.34957843069359656,0.07931319068968296,-0.311919438906759
7.491391357421875,-93.97113595962611,23.970943335584316,6.000872296744857,0.46839127260074015,0.0070960957407951355,-0.34039632245898244
7.50142041015625,-96.04817599565948,25.941463156416752,8.792787678955262,0.6921281317941844,0.02725684023797512,-0.2622984989084303
7.51144921875,-98.8852248410185,28.3622802737552,11.861169908860743,0.8914606175713241,-0.050963879039883614,-0.20768413453698156
7.521478271484375,-99.88329989386496,27.07893895512858,13.134928472081835,0.895632277232781,-0.07796352964639663,-0.3334755832850933
7.53150732421875,-100.46464461488142,25.112718738378668,13.639604319664908,0.6964910031788051,0.01738718813061714,-0.5069800925835967
7.541536376953125,-101.30506524130564,22.352799804222013,13.584352358147736,0.6743765673305839,-0.0020434885263442993,-0.547037962205708
7.5515654296875,-100.52973631767165,17.74183813328937,13.20912823213027,0.6702731505997479,-0.0628635756701231,-0.7520026086509227
7.561594482421875,-98.57413021489194,15.515275011040668,10.218832993684606,0.595353810954839,0.06521978340744972,-0.9069140611603855
7.571623291015625,-96.22793291423588,14.930574959594432,6.735719969828659,0.5193765232222154,0.36953064700663085,-0.7584197822168469
7.58165234375,-94.21154495803222,13.373857026985345,5.959276444699479,0.4582733082881197,0.5747896002233028,-0.6880886471450328
7.591681396484375,-92.39336909154234,10.049958274003332,7.779446299540185,0.32781123738046736,0.5182791929721832,-0.69257923656255
7.60171044921875,-90.87464237864415,10.560639565414139,9.128796273853101,0.12004627442592754,0.27271570189595223,-0.7054489472687244
7.6117392578125,-88.97896435564213,10.862235105952514,6.610540104702073,-0.1194657528579235,0.05817571011483669,-0.7191247136607766
7.621768310546875,-87.3405522379178,10.214911611327372,2.7078302039988476,-0.12242151565728708,0.03933072439134121,-0.7196127894386649
7.63179638671875,-86.41756145461731,8.226314841082853,-0.12423880646521797,0.28911137650487945,0.15845102481245993,-0.6623313978150487
7.641825439453125,-86.34018224151023,6.792659841844469,-1.2067278337585283,0.6225923118185251,0.2505769353240728,-0.7303747142106294
7.6518544921875,-88.31291845872833,8.342128382423237,0.10142342665664986,0.8614256178569049,0.27985972843170165,-0.5885013147115707
7.66188330078125,-88.27335117286646,8.431911219063053,1.999967541108709,0.9786102009750902,0.4674930085867643,-0.4397299723923206
7.671912353515625,-85.76886423819535,9.922120184629144,2.182913090810443,0.8807919240407646,0.6535667843401431,-0.5258431984856724
7.68194140625,-84.14160581938566,12.197830786824317,1.4292357601236798,0.6420197005398571,0.5592103382974862,-0.46110973729044197
7.691970458984375,-83.7024109953755,12.393123824441554,0.46192217175167155,0.41505028916597364,0.4982411980718374,-0.4292208533376455
7.70199951171875,-83.19210707191634,11.017742291654425,0.30712177722672407,0.18102308650137855,0.4962099845051765,-0.5579372496217488
7.712028564453125,-82.93108456259513,11.441793732501022,1.1686288251247856,0.062016356856795025,0.3333382206410169,-0.6372913568437099
7.722057373046875,-82.69199379069883,11.650320261635157,1.0049019336435867,0.11605344193009659,0.3019990795254707,-0.6342138490945101
7.73208642578125,-82.78138047636679,12.038859841439564,-0.46218508067386416,0.12880538060865365,0.4356055859386921,-0.6352057827413081
7.742115478515625,-82.77202994739304,9.296702814219524,-1.1735040860882937,0.28884700821395964,0.5061380888015031,-0.5860749643474817
7.752144287109375,-81.87547882636966,6.440670311836094,-2.1573809899192886,0.46002961390353736,0.5531260499477386,-0.627404753601551
7.76217333984375,-81.20989055213026,4.204784408257148,-3.9021165280190804,0.44372335287742315,0.6010352175921201,-0.5171282693713903
7.772202392578125,-80.11466288852954,4.425121188239881,-3.838518075336153,0.4386783444475382,0.5504781657874583,-0.5231558590978383
7.782231201171875,-80.40521913582188,6.159984541668066,-1.623292746944555,0.5914437248390167,0.49796355017423627,-0.5094084887742996
7.792260498046875,-81.44415921047252,7.748958896406186,1.2331821169093398,0.7067663865428417,0.40015316428542136,-0.36811025881469245
7.80228955078125,-81.62800741236175,10.125255986960846,2.9459963390362534,0.7545565309174358,0.40956338218748567,-0.4904647188514471
7.812318359375,-81.00816091499394,11.46301342270496,2.430406276046324,0.7090585160680115,0.3391185576081276,-0.5938946981877088
7.822347412109375,-78.86179445888493,12.202363471112267,-0.11205899168971174,0.6329287777200341,0.33797873992323874,-0.606253829023242
7.83237646484375,-75.02777705132499,13.75439077130885,-3.692531746450416,0.6860236043740063,0.5375321749746799,-0.5904249762505293
7.842405517578125,-70.95334381516977,14.03248192336592,-5.724193713185511,0.7577059348590671,0.6662550009995698,-0.6235270353853702
7.852434326171875,-65.20174396793959,12.259457022384405,-6.2794970573308335,0.833995978335291,0.6185714588046074,-0.8319388996750116
7.86246337890625,-59.12838073909927,10.871577950963445,-6.1077288987624145,0.9206362970426678,0.4697761510878801,-1.0425725316673518
7.872492431640625,-54.646912624640905,11.047644006067095,-5.389511028760301,0.8512501877360046,0.32586101662814615,-0.8025807032436132
7.882521484375,-48.309296207001964,11.927160635300467,-2.548522444910647,0.9452612544070929,0.24894728829562662,-0.7640408369690179
7.892550537109375,-39.55050067199856,11.922740649133823,0.5404690270417009,1.0392333042420445,0.3304553586810827,-0.9529296701431273
7.90257958984375,-28.994716517310653,11.492320910659837,3.1880215309547166,0.6623779403705149,0.2551373751074076,-0.9799971252888441
7.9126083984375,-15.438367080986323,11.07907739040114,5.174829218523515,0.40131961424890905,0.07703530888557433,-1.2322522229582071
7.922637451171875,-1.1369758075202425,10.912528350132257,5.811959936472882,0.11916227639932185,-0.013187982875108717,-1.336379536908865
7.93266650390625,14.601055898181754,9.863165406808179,5.700301711468807,-0.03427069192226045,0.0413046548128128,-1.4117764309376477
7.9426953125,30.466229547571125,6.307501259814709,5.40063441871049,-0.09733190905633382,0.1300011753976345,-1.4771850149154662
7.9527236328125,46.58300687541626,2.2005985850057215,5.0578310662489585,-0.16762071195691822,0.17158347810804844,-1.4577204359889029
7.96275244140625,62.371013047562826,-1.453744186412978,5.195984021930337,-0.28816388478800653,0.18526947363317012,-1.3039105149805545
7.972781494140625,77.05201972507416,-4.376666545607342,6.560266070429371,-0.23081801309343425,0.19322130942046642,-1.1736790379583835
7.982810546875,89.29327600086778,-6.870990158793468,8.941994868921483,0.012415053140698,0.28807752167880535,-0.9217880974262952
7.992839111328125,99.06044651398601,-9.61222169538097,11.933300121590662,0.19032489385921508,0.3617641046583652,-0.6533645397663116
8.002868408203126,106.7970359378053,-12.34591014180384,13.794963802526018,0.30825134485326705,0.31140812838375564,-0.5448322688549757
8.0128974609375,113.26204904384332,-15.640627765330619,14.867866992824545,0.36080431971549987,0.26786943090856075,-0.5406915157884359
8.022926025390625,119.7754950212859,-17.21410015197375,14.810921998166858,0.30601443438036363,0.22109715833961963,-0.5563491036474705
8.032955078125,125.68354035145524,-16.3243279937016,13.95963197945221,0.24411592261642215,0.24070728321671483,-0.589409077206254
8.042984375,129.56140757348666,-16.557910218032283,14.417349422717798,0.3127196493737399,0.31948680542111396,-0.24522563742399214
8.053013427734374,133.044517182248,-16.67533141514856,16.82511063345777,0.4898944081502035,0.44796822390556335,-0.20717092431783674
8.06304248046875,135.93379648419014,-16.41764203814232,20.03348442059183,0.6337008580710739,0.4940794022172689,-0.2764811919093132
8.073071533203125,137.6922560067666,-17.866483963000224,23.43307106108769,0.7775025222189724,0.43112405661046505,-0.2501736152201891
8.0831005859375,140.22674796246156,-18.086530459943233,25.170085497217606,0.5387079772884026,0.2881488333493471,-0.4693319144517183
8.09312939453125,143.0667542797312,-18.086429714652976,23.580329939593167,0.29461857735272495,0.1735837120145559,-0.45153146934509275
8.103158447265624,145.77242443640503,-18.305407286990874,19.8766257112079,0.10730725916102528,0.23734277521967886,-0.3872749780118465
8.1131875,148.3454796401539,-19.13349771441593,16.145366792163514,0.012730704094283282,0.39279637178182597,-0.4827753333926201
8.12321630859375,150.4902956433213,-19.6286300801812,12.690074836344321,0.027728037946298717,0.4575432769805193,-0.49181671798229215
8.133245361328125,152.0863879089482,-18.31878592002764,9.99684757679096,0.10184081044867634,0.4880635029286146,-0.520894343906641
8.143274658203126,154.11582835665578,-17.98832600005679,9.556265370605642,0.27959048303626477,0.43384617505073547,-0.6458724304452538
8.153303466796874,155.31729961279603,-17.97301954612679,10.427827390776887,0.49111459759492426,0.3630331016808748,-0.6983703871846199
8.16333251953125,155.69095194153076,-15.388303501917422,11.378007449615918,0.6729498224630951,0.34505963809490203,-0.3451061075851321
8.173361572265625,155.10564571079567,-11.097237155856911,11.525644549846684,0.5442318918090313,0.26373510758280755,-0.07090265134945511
8.183390380859375,154.3186713146268,-7.912301162859749,9.884150309259397,0.19660996547807008,0.14356559036970137,-0.17625117765814066
8.19341943359375,155.3603571253238,-8.518777564927277,7.681674702892391,-0.17338179623428732,0.155703771930933,-0.44378889239430425
8.20344921875,156.20081190269386,-9.17676725371504,5.6223333945458185,-0.3045250178065151,0.2025678144365549,-0.5958873333096504
8.213478271484375,156.2464239059712,-8.59992875000349,3.244110617532038,-0.5074439837682992,0.1674105763375759,-0.5378538081444799
8.22350732421875,155.84252749959168,-7.535688800893476,2.955398948202422,-0.21314890274889767,0.2896387796461582,-0.5107330884415656
8.2335361328125,154.25517787610238,-5.740573787475671,1.7427951240452733,0.27194457139298317,0.4529489349275827,-0.3068413319248706
8.243565185546874,153.23734308598708,-5.007678694720847,-1.6930111558455196,0.41284488807618613,0.3711550333380699,-0.19055647412538526
8.25359423828125,152.6551787422702,-3.8733200235914835,-2.49714149310558,0.607352145653963,0.1277308923780918,-0.2892167548418045
8.263623291015625,150.8042794394668,-0.9317918022111819,-1.7958475512062895,0.7798117490094154,-0.1302151104092598,-0.35960254271030423
8.27365234375,147.9949679923272,0.44357436265031325,-1.2159624629597972,0.59423057907857,-0.23011399300992488,-0.14567165927086026
8.283681396484376,145.825372062851,0.12559645330510347,-3.6089524291242623,0.26617241773232814,-0.2605079622298479,-0.019195771922543643
8.293710205078124,144.04221457623575,0.6006888839629992,-5.636182029974843,0.2007256206359714,-0.14145488182604313,-0.17047982771508394
8.3037392578125,144.29271859423514,0.07960126574315,-5.931836586595776,0.3882920460999012,0.036271336820721624,-0.3534696659784764
8.313767333984375,146.0967764597106,-0.9656055074709763,-5.292291396774809,0.6657320000387728,0.2372667873740196,-0.6567294861547649
8.32379638671875,146.04952521103246,0.7018292046146373,-6.866326847137642,0.7445644214741886,0.3187514768838882,-0.35851299390792846
8.333825439453125,145.42017792052914,3.2778997767995026,-8.17625638465583,0.6815215437144041,0.15876842019855975,-0.11161620840132236
8.3438544921875,143.2550352743918,5.182822247399723,-6.816317055808455,0.6990723249088973,0.005500935503840446,-0.013814590340852737
8.35388330078125,140.86746068774377,6.249228220250275,-5.7152956842442775,0.577159507692419,-0.06028057343959808,0.11514759739786386
8.363912353515625,139.4333258677162,6.488913218604363,-4.547540803168136,0.4510002120126039,-0.01675415092408657,-0.008489888186752797
8.37394140625,139.0802324083832,6.798341278573451,-4.294732876984338,0.47794236027821896,-0.013184475743770598,-0.2430205285951495
8.38397021484375,138.7534761584898,4.7706160621212215,-4.651651242252525,0.5318502934133633,0.0966828431636095,-0.2504451256379485
8.393999267578126,139.2524761188726,2.784160556181502,-4.011395712757876,0.7035296696439385,0.21899112597107886,-0.24644641139060258
8.4040283203125,140.26935468250412,3.209575473541161,-3.354794686805741,0.721214014090225,0.20980185734331608,-0.3065180182546377
8.41405712890625,141.48051114688744,6.088629555408943,-3.2117009430335046,0.5184674090206622,0.20467033967375753,-0.16246318306326865
8.42408642578125,141.95754521889947,10.892797641167382,-1.262314367823325,0.5334265662867576,0.1522387261688709,-0.17888591007590293
8.434115478515626,141.20450320252723,14.095149762774433,1.821453076631021,0.628784079130739,0.1235439620822668,-0.12521364886015654
8.444144287109374,139.90224567499425,16.07442844744376,3.9737511251473507,0.5836910648856312,0.06826221984326838,-0.14108780207931995
8.45417333984375,138.38343016963685,15.679587164356372,4.3175811404185005,0.5082226765232161,0.0427513464897871,-0.10154489624202251
8.464202392578125,136.91463896976063,13.756154667662006,2.5860142070384935,0.3719475719552487,0.05141571446061134,0.03873509658575058
8.474231201171875,135.23614730198668,11.372992383217836,1.544518147534388,0.3333713922582566,0.038893502017855644,0.13816548489183186
8.48426025390625,132.64872138022412,10.842353279052254,2.7339712589431904,0.3215395001672208,0.0048632221221923825,0.11088964769244193
8.494289306640624,130.8999060847557,10.816865574390706,4.277309491298459,0.21449505666084587,0.08088204744160175,0.018127192842960358
8.504318115234375,129.08145018050985,9.550813172100678,5.146220971184917,0.2882974480397999,0.15492109712064264,0.030730069306492802
8.514347412109375,127.22803736809188,8.69477446436558,4.987140315886619,0.6169069596584886,0.1607487803608179,0.0757996296107769
8.52437646484375,123.2979328592882,7.762095911501059,3.7290378269036646,0.881775309054926,0.09115677321851252,0.2373585573107004
8.5344052734375,119.12866244650736,6.854035921726204,3.1740845299533054,0.9910359673060476,0.07461129660904407,0.5115893399447202
8.544434326171874,116.03017445028775,6.511262024455468,4.348385720462081,0.9063370649900286,-0.03232230693399906,0.5909118829846381
8.55446337890625,114.52436362511006,9.245392725627097,7.605042541725786,0.8390935206700116,-0.02413724691271782,0.4402396754801273
8.5644921875,113.55973600862916,14.064393420941865,11.113953190076872,0.6675153763242065,0.12596271366178988,0.2237216616243124
8.574521240234375,112.50349506481088,18.86835318593062,12.915140668553642,0.4217348814964294,0.3275450241923332,0.06014847149252891
8.58455029296875,111.79722618387488,20.45767844163735,13.163476955265196,0.27524828911349175,0.2858388028413057,-0.02074701995253563
8.5945791015625,110.63291115681949,19.54910448012745,13.796322156397204,0.31739326720796524,0.07454641467928887,-0.015170096603035926
8.6046083984375,107.99777636370438,16.376222063468067,14.185009439042412,0.24389314671121537,-0.03607084581255913,0.19812135642170906
8.614637451171875,106.2515292193639,15.891664538085267,14.800745016303539,0.11438918024599551,0.015299860462546347,0.37476737861633297
8.624666259765625,106.3934537201276,15.592133422223528,16.388560800203695,0.164659524063766,0.06957388696372509,0.20486732355058193
8.6346953125,105.75817099523553,14.09236219181942,18.234079621488434,0.34451690952032804,0.06565759030282498,0.08287234447598457
8.644724365234374,106.20630653686923,11.422578702818482,19.64249707174362,0.5267530068069696,0.05535246938765049,-0.04019757035374641
8.654753173828125,107.55317886006074,8.12111541371267,19.303103264338393,0.4893368108000606,0.1378700090765953,-0.14643267023861406
8.6647822265625,107.6385084133617,2.963934763674234,17.954958818413985,0.4427899444848299,0.2638619488328695,-0.03296586553454399
8.674811279296875,106.34921458487342,-0.731993080897559,14.5746691698707,0.4007333022609353,0.09204173935949801,0.18900456850826738
8.684839111328126,105.24940386433963,-0.22746125425643893,11.849817280686535,0.5402122809041291,-0.07112053188383578,0.356632002466917
8.694869140625,105.08198909759344,1.8565687867013492,11.205485408917859,0.9088627110101282,-0.07349778240919112,0.4119564148038625
8.7048974609375,103.82909334719216,1.1230329368250134,11.009867083541401,1.0841967738233507,0.011609189251065254,0.42390228866338725
8.714926025390625,100.6322642873027,-0.3626899284777,11.088991409981414,1.078191176733002,0.1377303083449602,0.3750502872109413
8.724955078125,97.21044879615303,0.024974853504416077,10.7404955217335,0.8296860061816871,0.2244710186868906,0.3602957856714725
8.734984375,94.75650526134002,1.621049349967323,11.434048297982226,0.4837001200873404,0.24071605104506014,0.23032734349966047
8.745012939453124,93.34006063126279,2.1041272856211686,13.371517687194615,0.28497239527031776,0.29301965425610543,0.12698328888118265
8.7550419921875,92.36014705141939,2.5176252304264484,14.669128978544686,0.31467341379001734,0.2894569933384657,0.09594166940748691
8.7650712890625,91.45119913705244,1.2367718082050045,14.588852057682233,0.4833084173560142,0.2140077846005559,0.061193012109398835
8.775100341796875,92.01775649851582,-1.0408160287948658,12.195649395158146,0.7332407711662352,0.20844839690774677,0.013507131826877593
8.78512939453125,92.34303059735934,-2.988295273679319,8.128464697259604,0.7938578830838203,0.1514893691062927,-0.031764673051238056
8.795158447265624,89.60098285316602,-5.374337336632295,6.11188549575919,0.9168724144645035,-0.01298310795277357,0.2638987737119198
8.805187255859375,85.07754664135251,-3.296136168440025,5.545937301792403,0.9679542207956313,-0.030730361567437647,0.6362684435367584
8.81521630859375,79.36206483445335,-0.5064074072593762,6.130036723478499,0.7732451570354402,0.11812748999148606,0.7309159814804792
8.825245361328125,76.01849599043534,0.633607300832993,6.0465257080440455,0.6163903153732418,0.17771686629652975,0.6430629259824753
8.835274169921876,75.80060612572277,-0.8681729656824502,6.021208331224924,0.514198937921226,0.14498188690841196,0.349813554623723
8.84530322265625,75.75709099052062,-4.37914376984194,5.676329028142531,0.4299795627504587,0.16570464920252562,0.181284203389287
8.855332275390625,75.0353175801687,-7.954054109256036,4.482895197108081,0.3706980833508074,0.1673214367493987,0.1297790570795536
8.865361328125,72.52332426759975,-10.507567288015847,3.467148310444689,0.41934345631524916,0.11370558189600706,0.20795184556245802
8.875390380859375,69.54912522370685,-12.431415572475938,3.3482323691172398,0.5672223798394203,0.10560264720022677,0.3160872261106968
8.88541943359375,69.33480071774103,-12.961871969081223,2.557018346464497,0.6326751682851464,0.03264671658277511,0.2022930891484022
8.8954482421875,71.1094751094071,-11.972013633806295,1.5161084025685432,0.6059511928148568,-0.09612345571517944,0.03332826910614967
8.905477294921875,72.97336543201187,-10.68075356461069,0.8856305023141796,0.5194326007910073,-0.08626169465333222,0.19707389319539068
8.91550634765625,73.42234791710267,-13.930998118904224,0.7723700109803538,0.4447722043432295,-0.004772913490235805,0.3877782513588667
8.92553515625,71.07921737138395,-17.545956845629867,1.285584075273618,0.443437375542894,-0.05861410153210163,0.5537824680298566
8.935564208984376,66.08240806895353,-19.118986977524237,1.4228565768822996,0.5063149066731334,-0.09109072224497794,0.6609831980764865
8.94559326171875,60.33747448635327,-19.011274894313136,1.3800098397234575,0.5376794014256447,-0.03899550108760595,0.7252461191505193
8.955622314453125,53.55368279137242,-18.922566104920303,1.0805376342433097,0.4321338912401348,0.04339490509033203,0.820884421697259
8.9656513671875,47.418550746773086,-22.87532464365362,0.4464433889472624,0.38700763231255114,0.05988295242413878,0.8139040612906218
8.975680419921876,46.32199119628422,-25.55539183622366,-0.7258219516215996,0.41029388841912146,-0.0026522680744528767,0.4733849892348051
8.98570947265625,50.042128859812536,-24.304446104830408,-0.40491434468970394,0.3727987819571048,-0.14642448693215845,-0.07512918300330639
8.99573828125,52.99732290233986,-23.409564965059094,1.9675264904286756,0.4269661332134157,-0.20389526364803312,-0.16349895585179328
9.005767333984375,53.42560649915092,-24.26605702660035,2.7320071526699885,0.36442820930108427,-0.20617899067103862,0.10417758283317088
9.01579638671875,51.97746979132482,-25.30017840279155,1.7968778425539036,0.40654418049678204,-0.1279670392215252,0.2790817297965288
9.0258251953125,49.249748368915604,-26.41831281332119,1.412127523634973,0.5439782823741436,-0.04104980326890945,0.3986135336279869
9.035854248046874,46.927634315273,-26.080529223012796,0.3088265230744505,0.622927388991788,-0.03366992215067148,0.3733370535522699
9.04588330078125,44.07593129904972,-24.996024956409002,-0.6453970611140812,0.5563294490989298,0.00919599062949419,0.37438977747559543
