time,gx,gy,gz,ax,ay,az
0.0624423828125,-7.765838855166226,-10.63478041508098,3.6084440069179196,0.00164794921875,-0.10791015625,-1.0054168701171875
0.072469482421875,-7.084304650535783,-9.528960835624869,3.7540128404906397,-0.0066070556640625,-0.1047210693359375,-1.0089263916015625
0.082496337890625,-6.65463239088909,-5.948562439212668,3.419921821202282,-0.0158843994140625,-0.0952911376953125,-1.0097198486328125
0.0925244140625,-5.941833422219736,-1.573135359496272,3.3919524099944915,-0.0236968994140625,-0.0866851806640625,-1.0084075927734375
0.102551513671875,-5.656311024345693,0.7404632625203154,2.8359222910327975,-0.0220794677734375,-0.090789794921875,-1.0063934326171875
0.112578369140625,-5.888855059922532,0.7492370673960198,2.984268236833362,-0.027557373046875,-0.1053924560546875,-0.9977264404296875
0.12260546875,-5.522628854362911,1.3056183007697348,4.697875828121055,-0.0252685546875,-0.115570068359375,-0.9886474609375
0.132632568359375,-4.068176355988662,3.332305862076651,7.393096649138413,-0.010345458984375,-0.1060791015625,-0.99383544921875
0.142659423828125,-1.113372808182794,6.349944909090814,10.06721474694137,-0.0051727294921875,-0.0990753173828125,-1.004730224609375
0.152687255859375,1.0164795311735815,5.887878342871221,12.100311053402168,-0.0087432861328125,-0.10052490234375,-1.0084228515625
0.162714599609375,0.6569976571716719,1.9138640419974127,11.076323970391979,-0.0170440673828125,-0.102996826171875,-0.9910125732421875
0.172741455078125,-3.5356598035749713,0.130996705019777,6.333129837127889,-0.0296173095703125,-0.0919952392578125,-0.9708404541015625
0.182768310546875,-10.805908243414711,2.004898083915812,-0.6381377973259742,-0.050079345703125,-0.0678558349609375,-0.949951171875
0.192795166015625,-17.159149572553705,3.510253847740051,-5.861785739581302,-0.0589752197265625,-0.0525970458984375,-0.94146728515625
0.202822509765625,-18.301041088563945,6.157730152355139,-5.491760241295862,-0.0438690185546875,-0.0494384765625,-0.9595947265625
0.212850341796875,-17.05340629137086,6.777343569517539,-1.2073364676465999,-0.0067596435546875,-0.0569610595703125,-0.9784698486328125
0.222877685546875,-15.405959540921906,3.5201872906707767,2.0109558213793783,0.018829345703125,-0.0698394775390625,-0.9860687255859375
0.232904296875,-14.278747808985313,-2.1544952349949584,3.274795455821732,0.0087432861328125,-0.075225830078125,-0.9937286376953125
0.242931396484375,-13.918792570857411,-7.746169617903882,3.9256439683888353,-0.009796142578125,-0.072357177734375,-0.99871826171875
0.252958251953125,-13.252425655052626,-12.60087598087854,4.354324143058584,-0.0124359130859375,-0.053192138671875,-1.00067138671875
0.262986328125,-12.603896632038976,-15.77955552059597,4.339813406166892,-0.013275146484375,-0.0375823974609375,-0.99591064453125
0.273013427734375,-10.802826120551744,-14.998108455012934,4.122939958980178,-0.013580322265625,-0.0316009521484375,-1.00006103515625
0.283040283203125,-8.143188023789213,-12.588912904547263,3.1160125540825647,-0.0244140625,-0.0278778076171875,-1.0078887939453125
0.2930673828125,-5.105194159274766,-7.614074613129482,1.6017303733433537,-0.0399169921875,-0.0291900634765625,-1.0057373046875
0.303094482421875,-2.0877531877465327,-0.17051696663005092,0.389022815688185,-0.036407470703125,-0.033233642578125,-1.0018157958984375
0.313121337890625,0.9671478495629298,8.187713173214881,-0.13992309525432253,-0.0258331298828125,-0.03662109375,-1.0018463134765625
0.3231494140625,3.341598547885865,14.93090793131647,-0.3430023084015349,-0.020355224609375,-0.0441131591796875,-1.0014801025390625
0.333176513671875,4.854904011573764,15.871414734743473,0.15216064647265654,-0.019134521484375,-0.0497589111328125,-1.0045318603515625
0.343203125,4.800308175103736,11.231720165519878,0.6666870275612755,-0.0186920166015625,-0.051513671875,-0.996734619140625
0.35323046875,4.640701168352525,5.3016508903718425,1.086654602253585,-0.005828857421875,-0.0507659912109375,-0.987548828125
0.363257568359375,5.313125608177464,1.7792205228889513,1.4859771297667377,0.006683349609375,-0.0492706298828125,-0.9952850341796875
0.3732841796875,6.088653461071038,1.2678833198744126,1.9159088298801852,0.0009918212890625,-0.051422119140625,-1.0094146728515625
0.3833125,1.7058562870750806,6.885650732960078,-1.1083526191428346,-0.00933837890625,-0.0514068603515625,-1.01507568359375
0.393339599609375,-4.460662931359689,4.309646595037061,-6.351837298377731,-0.0207977294921875,-0.05072021484375,-1.0012054443359375
0.4033662109375,-7.75549282612095,-5.821868833411279,-9.544662586753082,-0.031829833984375,-0.042755126953125,-0.9697723388671875
0.4133935546875,-10.142882997661356,-6.355774048660598,-9.841644334507114,0.006134033203125,-0.0449676513671875,-0.993927001953125
0.423420654296875,-10.209899960023876,-5.252288686353337,-8.869354099551105,0.0086669921875,-0.0501708984375,-1.021881103515625
0.4334482421875,-7.638107487497818,-7.678496957381042,-8.527114664582923,-0.0088043212890625,-0.064483642578125,-1.035675048828125
0.4434755859375,-1.2078399806544768,-16.911147111337833,-6.617767298617593,-0.006317138671875,-0.07354736328125,-1.043701171875
0.45350244140625,8.272353731183324,-23.11904969890177,-2.7067717381209073,0.012939453125,-0.0681304931640625,-1.0374755859375
0.463529296875,17.770950107079255,-21.708053852234904,0.9507598778665419,0.0144195556640625,-0.06866455078125,-1.0354766845703125
0.473556396484375,24.502731619077757,-14.17533874495132,3.4400939311422682,-0.0039215087890625,-0.0735626220703125,-1.0212554931640625
0.483583251953125,28.350265971005147,-6.836761519541596,4.166961808841379,-0.0161895751953125,-0.0831298828125,-0.9910125732421875
0.493611328125,30.81271479888212,-0.03442382658164031,4.2031554081401,-0.0207672119140625,-0.08209228515625,-0.9686126708984375
0.503638427734375,33.20413136693825,6.242416387213657,3.7408903395477524,-0.021331787109375,-0.0720062255859375,-0.9775543212890625
0.51366552734375,34.52371025420637,9.437500333770167,2.910034112395667,-0.0265350341796875,-0.0642547607421875,-0.990753173828125
0.5236923828125,33.73113851801268,9.068390080833508,2.2287445139148745,-0.037841796875,-0.060455322265625,-0.9869842529296875
0.533719482421875,30.847716103283847,6.637084781137681,1.1922302236366473,-0.0344696044921875,-0.0580291748046875,-0.9697113037109375
0.543746337890625,26.497725715253637,4.686386169276624,-0.9753723578189771,-0.0318450927734375,-0.0547332763671875,-0.9478912353515625
0.5537744140625,22.105422305315198,5.784774929802586,-4.110458215158802,-0.043426513671875,-0.0573577880859375,-0.9324188232421875
0.56380126953125,19.346037833461093,9.714767594258603,-8.600906320828448,-0.0554656982421875,-0.058624267578125,-0.9286041259765625
0.573828369140625,18.143875020667366,14.670623082425626,-13.182967753835474,-0.06182861328125,-0.067901611328125,-0.933380126953125
0.58385546875,17.96228078120424,17.320647687931363,-15.047087741551096,-0.06103515625,-0.074951171875,-0.9515533447265625
0.59388232421875,17.588759933611044,16.933456216714386,-14.517227278950894,-0.04229736328125,-0.07965087890625,-0.9732666015625
0.603909423828125,16.54208296217807,13.401992283723919,-12.138794046733313,-0.0207061767578125,-0.0887908935546875,-0.9871673583984375
0.613937255859375,15.480925989704673,7.738571032452243,-9.693862946530134,-0.0061492919921875,-0.1020355224609375,-1.0027923583984375
0.62396435546875,14.67141709191664,0.5278320031384137,-7.10040297952268,0.0074920654296875,-0.1181182861328125,-1.0149688720703125
0.633992431640625,15.14025835201924,-4.177017127960108,-5.049255336859185,0.0184173583984375,-0.1330413818359375,-1.0301513671875
0.64401904296875,16.30946379452036,-5.31883223122901,-2.77207944564363,0.019317626953125,-0.1417236328125,-1.0466766357421875
0.654046142578125,16.94311581174808,-4.679626416432427,-0.6681823587418323,0.01080322265625,-0.1483306884765625,-1.0497894287109375
0.66407421875,17.34472581230295,-3.7647093436177026,0.4678497087341848,-0.005035400390625,-0.151092529296875,-1.0389862060546875
0.67410107421875,16.56790107724072,-2.0089874462379456,0.6680907915182718,-0.016387939453125,-0.15447998046875,-1.0226593017578125
0.684128173828125,13.823012828126322,0.9954223781275495,0.16447449037041106,-0.0279541015625,-0.158477783203125,-1.00213623046875
0.694155029296875,9.426055498042164,3.901077058604769,-0.809082010964908,-0.0336456298828125,-0.1656646728515625,-0.983551025390625
0.70418212890625,4.9595642808863385,4.497405933999773,-2.1852263905049614,-0.03900146484375,-0.1758575439453125,-0.9767913818359375
0.714209228515625,0.0649108895402013,1.9014892333252305,-3.155746539248879,-0.0438385009765625,-0.1850433349609375,-0.9705963134765625
0.7242373046875,-3.578216577859205,-1.8475341539767147,-3.1896819072532643,-0.038421630859375,-0.1910400390625,-0.9716796875
0.73426416015625,-6.077010976743928,-6.37751752899651,-2.4199370901525756,-0.0249786376953125,-0.1923980712890625,-0.9829864501953125
0.744291015625,-7.569107208955057,-9.331329311990551,-0.8237609946257645,-0.0162811279296875,-0.1947784423828125,-0.9882659912109375
0.75431787109375,-8.381500154120129,-9.162643276285099,1.1343841776170458,-0.011871337890625,-0.1975250244140625,-0.988006591796875
0.76434521484375,-8.117690927617556,-7.147186360242682,2.8136291939121105,-0.0070343017578125,-0.198638916015625,-0.9893646240234375
0.774372314453125,-6.690551501960541,-5.328216484261784,4.276214526597141,-0.0051116943359375,-0.19775390625,-0.9954833984375
0.78439990234375,-4.454009900221274,-4.897170929705095,5.104110720517673,-0.012054443359375,-0.1904754638671875,-1.003662109375
0.79442724609375,-1.5802764289952262,-4.169586309029956,6.316436854796378,-0.012176513671875,-0.1780853271484375,-1.007476806640625
0.8044541015625,1.0578612994771617,-4.705291706012397,6.964462151358739,-0.0127410888671875,-0.1639404296875,-1.0058441162109375
0.81448095703125,3.2003784103803277,-5.6308135012872125,6.564407299500514,-0.02496337890625,-0.1513824462890625,-0.9962310791015625
0.82450830078125,4.732467748059408,-5.361770642333118,5.425888189392966,-0.03271484375,-0.1421966552734375,-0.9859466552734375
0.8345361328125,5.124511641794855,-3.795608692536017,3.769332954798978,-0.04022216796875,-0.1379241943359375,-0.9737396240234375
0.84456298828125,5.222152611074772,-1.8182983830081214,2.6197967495601997,-0.04443359375,-0.1341705322265625,-0.9622955322265625
0.854590087890625,4.90444935003939,1.4246520628603667,2.4544525973495888,-0.0357818603515625,-0.134979248046875,-0.95733642578125
0.8646171875,4.861999297460938,4.234146110838563,3.090453986208377,-0.02703857421875,-0.1395416259765625,-0.957305908203125
0.87464404296875,6.184662015139322,4.351928881094025,4.243759175208533,-0.017852783203125,-0.1345977783203125,-0.9666900634765625
0.884671142578125,8.840728776739581,3.304290773978786,5.114929313276149,-0.009796142578125,-0.1287689208984375,-0.9897613525390625
0.89469921875,11.702286048387906,2.7814483307507722,5.9843598875395285,-0.00836181640625,-0.1262054443359375,-1.009521484375
0.90472607421875,13.923141693811417,-0.40441894253146643,5.845825295038275,-0.0195465087890625,-0.123138427734375,-1.010589599609375
0.914753173828125,14.719329161396987,-3.7948761547475334,5.533615213642877,-0.02862548828125,-0.1219635009765625,-1.003021240234375
0.9247802734375,13.141448741418259,-5.312988150620417,5.170425454056149,-0.021087646484375,-0.1216888427734375,-0.9932403564453125
0.93480712890625,9.488860795007724,-4.987869011693695,3.9548340624673544,-0.0234832763671875,-0.122467041015625,-0.9724884033203125
0.944833984375,4.876525829165086,-3.902069143581713,2.027786261267936,-0.0357818603515625,-0.12408447265625,-0.9520721435546875
0.9548623046875,1.0697784854749528,-1.615753178596213,-0.5215454009767987,-0.0424957275390625,-0.1266632080078125,-0.9436492919921875
0.964888916015625,-1.7250518934071668,-0.16329956443103663,-2.962799031281308,-0.0462188720703125,-0.12969970703125,-0.9484100341796875
0.974916259765625,-3.6702576457933582,0.004562377935056748,-4.307083139664191,-0.0500335693359375,-0.131866455078125,-0.9619293212890625
0.984943115234375,-5.223892174879009,0.01722717282722025,-4.618835598385198,-0.035430908203125,-0.1318206787109375,-0.967742919921875
0.994969970703125,-5.892776442279766,-0.23251343312770628,-4.362823459707019,-0.03106689453125,-0.1333770751953125,-0.9666900634765625
1.0049970703125,-5.857131819435585,-0.4040374657941506,-4.350891119227006,-0.03515625,-0.1367340087890625,-0.9713592529296875
1.01502490234375,-4.6966246228424735,0.08929443142341542,-4.641388029250934,-0.037200927734375,-0.13629150390625,-0.9707794189453125
1.025052001953125,-3.225860565513176,0.640914909553819,-4.798034575883769,-0.0405426025390625,-0.138702392578125,-0.9742431640625
1.0350791015625,-2.0426940029051353,0.9406127780808418,-4.56452919118125,-0.0407562255859375,-0.1414642333984375,-0.97235107421875
1.04510595703125,-0.7471160802153193,1.1548919273217149,-4.380783015242744,-0.037628173828125,-0.1496124267578125,-0.9754486083984375
1.055133056640625,0.6259155473322067,0.5913696244490457,-4.024978397696093,-0.040191650390625,-0.1562652587890625,-0.9780731201171875
1.0651611328125,1.7377166649539573,1.989639227866592,-2.762695192610856,-0.037689208984375,-0.15985107421875,-0.9785614013671875
1.07518798828125,2.1178284316528027,4.0112608165217685,-1.6866302650568468,-0.03131103515625,-0.1640777587890625,-0.977203369140625
1.085215087890625,2.0285796304287156,6.470184413013365,-0.7466125672074424,-0.0329132080078125,-0.1666107177734375,-0.97479248046875
1.0952421875,2.5351715595173876,9.868637242107004,0.0850067134708738,-0.0264434814453125,-0.166290283203125,-0.98516845703125
1.10526904296875,3.0550689105526563,10.396377784743564,0.005813598638259997,-0.0258331298828125,-0.1681060791015625,-1.002838134765625
1.115296142578125,3.2876891454274237,8.226577803365899,0.22517394129727802,-0.0261993408203125,-0.166778564453125,-1.0055084228515625
1.125323974609375,3.525833082350027,4.970214680236504,0.5146789264268203,-0.0178680419921875,-0.16180419921875,-1.00445556640625
1.13535107421875,3.609680271157692,1.409530664368193,0.886474617646058,-0.0155487060546875,-0.1568145751953125,-1.008209228515625
1.145378173828125,2.9219207759856047,-1.5269927358977815,0.8741454858639502,-0.0200653076171875,-0.1560821533203125,-1.0096893310546875
1.155405029296875,1.741546586809336,-3.8817292671202384,0.522079489753382,-0.0225677490234375,-0.1583099365234375,-1.0063629150390625
1.16543212890625,0.9805297909725714,-4.8205259619337975,0.30996703126371045,-0.022430419921875,-0.1560516357421875,-0.99249267578125
1.175459228515625,2.403137172671871,-0.39698791015790413,0.9039001911269059,-0.028076171875,-0.155670166015625,-0.960906982421875
1.185487060546875,3.0169523995591656,3.978576653795965,1.616180385584456,-0.0306243896484375,-0.16766357421875,-0.9419708251953125
1.19551416015625,1.3999023387942966,2.559127807700973,1.789199856153163,-0.027801513671875,-0.1671905517578125,-0.954345703125
1.205541259765625,-1.3677673659664444,-1.9335326389295222,1.056915318277115,-0.030029296875,-0.164825439453125,-0.954742431640625
1.215568115234375,-4.4983826510510845,-3.994033798774527,-0.15863036974117922,-0.0266876220703125,-0.16748046875,-0.9615478515625
1.225594970703125,-6.558669940597704,-3.834106626905971,-0.5006255987661075,-0.027862548828125,-0.16937255859375,-0.975372314453125
1.235622314453125,-6.992843721794258,-1.5862274447530114,-0.4477996884256124,-0.0276641845703125,-0.1670989990234375,-0.9813385009765625
1.245650146484375,-6.7623594151390005,0.6514129636689816,-0.2580413718723347,-0.0281219482421875,-0.1640167236328125,-0.985870361328125
1.255677001953125,-5.540725867455683,2.599182171428043,-0.01640319788225482,-0.0266265869140625,-0.161590576171875,-0.9902801513671875
1.2657041015625,-4.724075153116755,4.6587068276651475,-0.24740599360225796,-0.02703857421875,-0.1618194580078125,-0.994842529296875
1.27573095703125,-4.933974977160886,5.814300556924081,-0.18835448589521525,-0.02972412109375,-0.161895751953125,-0.985595703125
1.285758056640625,-5.237960657021943,5.449859592058772,-0.00961303685578005,-0.029083251953125,-0.162139892578125,-0.9728240966796875
1.2957861328125,-4.5684202645740415,3.4790038112965385,0.3243866011382387,-0.0216064453125,-0.169158935546875,-0.975921630859375
1.305813232421875,-3.705871532786274,1.4292907218021573,1.1024322325146088,-0.0203399658203125,-0.170867919921875,-0.98443603515625
1.315840087890625,-2.0984345363913746,0.3760681079472129,2.9555662878370876,-0.01483154296875,-0.167572021484375,-0.9955596923828125
1.3258671875,-0.7455444430151288,-1.227172831100198,4.7564237827995814,-0.0116424560546875,-0.1630096435546875,-0.9995880126953125
1.33589404296875,0.29811097012290544,-2.427719023494747,6.080596826058184,-0.0164794921875,-0.1551666259765625,-0.993896484375
1.345921142578125,0.904891955938733,-3.0167084337397494,5.980010764585523,-0.0237274169921875,-0.1473846435546875,-0.9857635498046875
1.35594921875,0.5929717840570897,-2.952545209789826,5.5530850947588215,-0.034210205078125,-0.143341064453125,-0.9719390869140625
1.36597607421875,0.15550231652408528,-0.9003143418126492,5.19125368904328,-0.036407470703125,-0.1419830322265625,-0.9698486328125
1.3760029296875,-0.6834411614301994,2.3074340561255338,4.229659957214334,-0.036712646484375,-0.1382904052734375,-0.974822998046875
1.3860302734375,-1.6100005584894754,5.690368481981492,3.0993957710489815,-0.043365478515625,-0.1363372802734375,-0.977081298828125
1.39605712890625,-2.6598967901773443,8.776672701382264,1.8527221095381625,-0.0430450439453125,-0.1363983154296875,-0.9783477783203125
1.406083984375,-4.179794453631364,6.394683928814867,1.0013427647557755,-0.04345703125,-0.13677978515625,-0.9790191650390625
1.4161123046875,-5.904586693128365,1.4815216052720679,0.9588012516754684,-0.0386810302734375,-0.140869140625,-0.98455810546875
1.426138916015625,-8.107849478797213,-4.1446838662029135,1.3365631131347122,-0.020599365234375,-0.140380859375,-0.9868927001953125
1.436166015625,-10.17353774043002,-7.562286411295153,1.2111206058901984,-0.0223846435546875,-0.1394195556640625,-0.9828643798828125
1.446193359375,-11.109878128463313,-7.692611543300873,0.33277892927662744,-0.0294647216796875,-0.1409759521484375,-0.9788665771484375
1.456219970703125,-10.775589033689025,-4.908202965875136,-0.44082641212857315,-0.0361785888671875,-0.140625,-0.9792022705078125
1.4662470703125,-9.395019118453627,-3.508529651861446,-0.4936065655377145,-0.0401458740234375,-0.1374969482421875,-0.9787750244140625
1.476275390625,-8.285888604797352,-2.850112862807145,0.7623748829036865,-0.038543701171875,-0.1349029541015625,-0.985626220703125
1.486302001953125,-7.68707311365764,-3.1486053630282194,2.3540648248062683,-0.0236968994140625,-0.12725830078125,-0.988372802734375
1.4963291015625,-7.674346763686613,-3.5868072482877884,3.005233715934128,-0.028167724609375,-0.122894287109375,-0.9807586669921875
1.506356201171875,-8.46948238214,-2.7053832887286906,2.0473632909764854,-0.03985595703125,-0.1261138916015625,-0.9766693115234375
1.516383056640625,-9.26522844875046,0.3692627048933679,0.5567321877031772,-0.0472259521484375,-0.1298980712890625,-0.969940185546875
1.5264111328125,-9.449752839367523,4.2982026130827045,-0.4828643855205769,-0.0501556396484375,-0.127410888671875,-0.970947265625
1.53643798828125,-8.248824583266277,6.2954865301778336,-1.2338866936109087,-0.0408172607421875,-0.1212158203125,-0.9816131591796875
1.546465087890625,-6.398986947991975,6.35043326761647,-1.3720397560139932,-0.0321807861328125,-0.1213836669921875,-0.99609375
1.5564921875,-4.547073362096813,6.552230779757674,0.09016418664510778,-0.0242767333984375,-0.1200714111328125,-1.007965087890625
1.566518798828125,-3.829772871877598,6.379379182432161,1.9052582170866081,-0.0128173828125,-0.11651611328125,-1.0024566650390625
1.576546142578125,-3.926681303369031,5.459441920577477,2.3880768189954047,-0.01666259765625,-0.1157379150390625,-0.9894561767578125
1.586573974609375,-4.008773773890238,4.8984985477250165,1.8255614354167837,-0.02252197265625,-0.1157073974609375,-0.9848785400390625
1.59660107421875,-3.904617231028951,3.2723846124881293,1.0340271409249906,-0.0264892578125,-0.116058349609375,-0.9875335693359375
1.606628173828125,-3.567688054697042,2.896728477005659,0.7805023116826061,-0.0280609130859375,-0.11407470703125,-0.9913177490234375
1.6166552734375,-3.049377441983332,2.999328590509829,0.969360297245485,-0.0157623291015625,-0.1132659912109375,-1.005767822265625
1.626681884765625,-2.896057197476294,1.4236908204563932,1.3618468726165127,-0.0131378173828125,-0.11370849609375,-1.0066070556640625
1.636709228515625,-2.64671324441875,-1.1042022120049941,1.700103773690049,-0.01531982421875,-0.11279296875,-1.001251220703125
1.6467373046875,-3.0858611108783665,-2.7875214361399716,1.773132263017531,-0.013153076171875,-0.10943603515625,-1.0007781982421875
1.656764404296875,-3.732864440386164,-3.3770446683572923,1.472412053909975,-0.0186614990234375,-0.11083984375,-0.996429443359375
1.666791259765625,-4.501159549835518,-2.3080596587648246,0.6688690061968301,-0.025054931640625,-0.11236572265625,-0.989898681640625
1.676818115234375,-4.982650747167805,0.3072509638515725,-0.24731445305912392,-0.0241851806640625,-0.112213134765625,-0.99359130859375
1.68684521484375,-5.695602541319838,1.8582611795116313,-0.9906158459425647,-0.0273590087890625,-0.1104736328125,-0.99359130859375
1.696872314453125,-6.27233901908066,2.2613524773427502,-1.3535461650625373,-0.027313232421875,-0.11004638671875,-0.989105224609375
1.706900146484375,-6.52970865785638,1.9726410214565457,-1.553009033168066,-0.018829345703125,-0.108795166015625,-0.9909515380859375
1.71692724609375,-5.752090340189959,-0.10060119594456329,-1.664154033489039,-0.0238037109375,-0.10784912109375,-0.9954376220703125
1.7269541015625,-4.649749888342322,0.10224914583449414,-1.897262626889462,-0.0248565673828125,-0.1087646484375,-0.9999237060546875
1.736981201171875,-3.581817795099094,0.4745635712448958,-1.8121490783209944,-0.021636962890625,-0.1067657470703125,-1.003875732421875
1.74700830078125,-2.7718201118985815,-0.33515930356322976,-1.8177948700002444,-0.0266265869140625,-0.107696533203125,-0.992523193359375
1.75703515625,-2.4681396561160596,-0.7939605591118815,-1.7038116059140138,-0.020660400390625,-0.1103973388671875,-0.9834136962890625
1.767063232421875,-2.630981397769507,0.32627869694046446,-1.4533539051349353,-0.028900146484375,-0.11322021484375,-0.982513427734375
1.77709033203125,-2.538177483082428,2.559768564822485,-1.3555145402039703,-0.0277862548828125,-0.1165313720703125,-0.9761810302734375
1.7871171875,-2.5327453482581523,4.213317875851432,-1.321487391532613,-0.027313232421875,-0.1195831298828125,-0.9737396240234375
1.797144287109375,-1.873062199443049,4.195968768472777,-0.9364318485351477,-0.0287628173828125,-0.1201934814453125,-0.9795379638671875
1.80717138671875,-0.6949310337180418,1.1404724374884658,-0.21025085841487287,-0.025482177734375,-0.1237640380859375,-0.9975433349609375
1.8171982421875,0.17910766373906092,-2.5082245422509835,1.0788726689114134,-0.0180816650390625,-0.1205902099609375,-1.0034027099609375
1.827226318359375,1.0172423779265074,-3.624343833532063,1.8155212707802766,-0.01348876953125,-0.11920166015625,-1.00067138671875
1.837253173828125,1.5094451261463726,-1.932479936023694,2.376617469115416,-0.0193023681640625,-0.1184234619140625,-0.996795654296875
1.8472802734375,2.112472496126455,1.5682677824955802,2.1340943137177764,-0.0305023193359375,-0.11895751953125,-0.9899444580078125
1.857307373046875,2.1431731292286043,5.233062557613398,1.8626709203945209,-0.033233642578125,-0.1196136474609375,-0.986328125
1.867333984375,1.7238921486304397,4.214935350024256,1.8114165405325104,-0.0408477783203125,-0.1193084716796875,-0.98443603515625
1.8773623046875,0.5521392590123139,0.7567138833813624,1.6205444495772712,-0.0409088134765625,-0.1162872314453125,-0.983795166015625
1.88738916015625,-1.2513427361387572,-2.142013491173583,1.4623107377360551,-0.0283050537109375,-0.1116790771484375,-0.9791412353515625
1.897416015625,-2.8664092672799724,-2.1371459141728915,1.3861236060825595,-0.032501220703125,-0.1083831787109375,-0.975372314453125
1.907443359375,-4.14245594387302,1.188674896730244,0.8068847711254266,-0.041046142578125,-0.1094970703125,-0.973907470703125
1.91747021484375,-4.336379955448491,5.821792420669939,0.4752349574959669,-0.042083740234375,-0.1074371337890625,-0.9817962646484375
1.9274970703125,-4.49368262712847,7.929885484877946,0.14198303761931608,-0.0443267822265625,-0.103179931640625,-0.981903076171875
1.937525390625,-4.381500185105596,5.90129069996701,0.5360565113944611,-0.0422821044921875,-0.1077117919921875,-0.981414794921875
1.94755224609375,-4.036789075431514,2.717056295463654,1.4312438357396637,-0.0321197509765625,-0.1086578369140625,-0.9876861572265625
1.9575791015625,-3.7830505359733024,0.6052551322274172,2.790679971744279,-0.0212860107421875,-0.1058807373046875,-0.995391845703125
1.9676064453125,-2.912124577168514,0.8024902380856109,3.338088897869536,-0.025360107421875,-0.104339599609375,-1.001068115234375
1.977633056640625,-1.6293945604726094,2.7099304871686267,3.1976774974504107,-0.032867431640625,-0.102508544921875,-1.0082855224609375
1.98766015625,-0.3062896680867461,3.2178190849825437,2.400192293922538,-0.0406036376953125,-0.10003662109375,-1.010467529296875
1.997688232421875,1.1613617172913036,1.309600834664381,1.2995605633061682,-0.0384979248046875,-0.093902587890625,-1.00811767578125
2.007715087890625,2.02896126724859,-0.7219390958001531,1.2988433934433168,-0.03033447265625,-0.092742919921875,-1.0108489990234375
2.0177421875,2.1113890573693617,-1.9534759375323132,1.5380096175856006,-0.0188751220703125,-0.0935516357421875,-1.0111236572265625
2.027769287109375,1.5530548167798461,-3.0225525143483414,1.2960357588076183,-0.0231170654296875,-0.0948028564453125,-1.0004425048828125
2.037796142578125,0.5386657503791117,-2.846725515865642,0.6623534859763139,-0.0256195068359375,-0.0973358154296875,-0.9896392822265625
2.0478232421875,-0.4265594542933123,-1.4289703432414014,-0.35252380554794427,-0.02752685546875,-0.098297119140625,-0.9829864501953125
2.057851318359375,-1.4844360683352535,-0.5602111552290938,-1.1989135637395048,-0.03179931640625,-0.1004180908203125,-0.9807891845703125
2.067878173828125,-2.2474517617213046,-0.5477294647685715,-1.6029205338062285,-0.027496337890625,-0.101776123046875,-0.98370361328125
2.0779052734375,-2.709548850348752,0.10507202166379942,-0.9464873810972875,-0.01953125,-0.10638427734375,-0.9820709228515625
2.08793212890625,-2.745056229079298,1.4055176080656933,-0.22018432802602503,-0.01422119140625,-0.109649658203125,-0.985198974609375
2.097959228515625,-2.2616271790134315,3.207916164459671,0.8041687037132886,-0.0138702392578125,-0.1073150634765625,-0.9908599853515625
2.107986328125,-1.7931060840281756,3.5151976240386706,1.3567962678904055,-0.0132904052734375,-0.1016082763671875,-0.989105224609375
2.118014404296875,-0.858886736536436,0.9135741935908769,1.134185781965998,-0.017669677734375,-0.1007843017578125,-0.9864349365234375
2.128041259765625,-0.31141663219333987,-2.052047733530056,0.4709319916797117,-0.0242156982421875,-0.1019439697265625,-0.9928131103515625
2.138068115234375,-0.5578765645542717,-3.453826880242225,0.4967346320950216,-0.02349853515625,-0.1015777587890625,-0.984344482421875
2.14809521484375,-1.8231659600088133,-3.7676847447748893,0.6395263534398966,-0.019927978515625,-0.1020965576171875,-0.97235107421875
2.158122314453125,-3.0462494287868775,-3.3208313577144413,0.9748687380893944,-0.022003173828125,-0.1073455810546875,-0.962646484375
2.168150146484375,-4.219238369201364,-1.395996110919284,1.0965881519060166,-0.024993896484375,-0.109954833984375,-0.9597625732421875
2.17817724609375,-4.518188492096829,1.3936919892914625,1.251602176605512,-0.0261077880859375,-0.1061859130859375,-0.963226318359375
2.1882041015625,-4.291000178602927,4.442276062114015,1.2767486919736775,-0.02325439453125,-0.1009063720703125,-0.9727783203125
2.198231201171875,-3.0603789557455183,6.511215066904924,1.122283963893839,-0.0251312255859375,-0.096923828125,-0.9838104248046875
2.208258056640625,-1.1168518290695635,6.4803007769478,0.23735046104011825,-0.0296478271484375,-0.0931396484375,-0.9906158447265625
2.218285400390625,0.3783569416906812,6.51373284538772,-0.005554199025908288,-0.027008056640625,-0.09136962890625,-0.9954681396484375
2.228313232421875,1.7570342541957515,5.513885358451649,-0.24162293112894634,-0.0223541259765625,-0.0919342041015625,-0.9967041015625
2.23834033203125,2.607772841856627,3.5440216626663594,0.043655394203974504,-0.02203369140625,-0.0928802490234375,-0.99151611328125
2.2483671875,2.7519989029272045,2.0828704562636196,0.29006956963355257,-0.0194244384765625,-0.096923828125,-0.9866180419921875
2.258394287109375,2.054153352785124,1.6729736219765237,0.7683410531436926,-0.02227783203125,-0.097503662109375,-0.9779052734375
2.268421142578125,1.2464447434519177,2.835479609397216,0.5440215791837537,-0.0225372314453125,-0.1000823974609375,-0.9759674072265625
2.2784482421875,0.518386812011638,4.24937444447993,-0.0014953613002569427,-0.0238189697265625,-0.1010589599609375,-0.9840240478515625
2.288476318359375,0.21165466239250882,4.752670166963837,-0.5660095055867587,-0.028778076171875,-0.0988006591796875,-0.988250732421875
2.2985029296875,-0.5239257752634011,3.97651649798756,-1.24575809599692,-0.0275726318359375,-0.09912109375,-0.9874114990234375
2.3085302734375,-1.6376494844148044,3.1595001550846242,-1.8016205551588311,-0.0238037109375,-0.099609375,-0.983917236328125
2.318557373046875,-3.0278166692077173,3.6577605340463504,-1.6010132034805022,-0.0214080810546875,-0.10211181640625,-0.9785614013671875
2.328584228515625,-5.090377771417716,4.672927708403938,-1.334976161369742,-0.019439697265625,-0.1039886474609375,-0.9728240966796875
2.338611083984375,-7.189498955264088,6.052566583478098,-1.1141815452692059,-0.015899658203125,-0.1044769287109375,-0.966949462890625
2.348639404296875,-9.540313463799077,7.1665648875784775,-0.553726210777284,-0.013702392578125,-0.109130859375,-0.959228515625
2.358666015625,-11.786987224285234,8.270583858414644,0.024215698655499655,-0.0208740234375,-0.10662841796875,-0.9590606689453125
2.368693115234375,-13.564498705777801,8.428314270691395,0.4006957957427219,-0.01507568359375,-0.103851318359375,-0.9610748291015625
2.378720458984375,-14.980025529185326,7.403900300858081,0.3091735820616518,-0.0185089111328125,-0.09893798828125,-0.965087890625
2.3887470703125,-15.207199328527242,6.335738969390834,0.26885985790910605,-0.0157470703125,-0.09771728515625,-0.979034423828125
2.398774169921875,-13.604034402014774,5.143020600671942,-0.2946472104400627,-0.012908935546875,-0.0915679931640625,-1.0007476806640625
2.40880224609375,-11.14176913547175,2.1499328820728016,-0.6353912075059828,-0.0135650634765625,-0.0866851806640625,-1.02044677734375
2.4188291015625,-7.868744192748931,-0.18049621985298334,0.1695556575250113,-0.01397705078125,-0.0787200927734375,-1.0248870849609375
2.428856201171875,-4.615798725525481,-0.5915679667392405,1.5143584867588447,-0.004058837890625,-0.0681610107421875,-1.0368499755859375
2.43888330078125,-2.1255949970693417,-1.9976807083972241,2.2228545429727964,-0.00836181640625,-0.066497802734375,-1.0328369140625
2.44891015625,-1.1028290238167042,-2.5653686796116606,2.1961670728948524,-0.022705078125,-0.066925048828125,-1.0167999267578125
2.458937255859375,-1.2638397411640592,-0.426055914605009,2.355178785971215,-0.0201568603515625,-0.0684967041015625,-1.0012969970703125
2.46896533203125,-3.151138295993236,1.9789734605907938,2.12803657625421,-0.0243072509765625,-0.067230224609375,-0.98272705078125
2.4789921875,-5.043167076987764,3.3971708879637927,1.5477600327909111,-0.0304718017578125,-0.06573486328125,-0.9703216552734375
2.489019287109375,-6.97303745386169,5.073867923533325,1.0908813154110593,-0.0276947021484375,-0.0660247802734375,-0.9719390869140625
2.49904638671875,-8.096999723300648,5.0840607002091,0.5593261654839011,-0.02557373046875,-0.0619049072265625,-0.9795074462890625
2.5090732421875,-8.883361963765156,4.7179719522065255,-0.34049987116394503,-0.0272216796875,-0.05535888671875,-0.9865570068359375
2.519100341796875,-8.661285193091361,5.141921793989217,-1.1475372009677862,-0.022979736328125,-0.0515289306640625,-0.9964752197265625
2.52912841796875,-8.13810721682037,4.821502678985109,-2.1706085050206645,-0.0222625732421875,-0.0500946044921875,-1.00897216796875
2.5391552734375,-8.214217722289115,2.7846373887629334,-3.27053832697811,-0.0267181396484375,-0.049102783203125,-1.008453369140625
2.54918212890625,-9.34605434606745,1.7125243659740115,-4.431411792465464,-0.01873779296875,-0.048095703125,-0.995574951171875
2.559209228515625,-11.015090470709168,2.0846251745500783,-5.2765503720588685,-0.0110931396484375,-0.05841064453125,-0.981201171875
2.569236328125,-11.245178199505743,3.0086212763190425,-5.241561874261832,-0.0061187744140625,-0.0699920654296875,-0.986358642578125
2.57926318359375,-10.406936403426757,3.1871032973981728,-3.915207012450233,0.0004425048828125,-0.07342529296875,-1.0031280517578125
2.58929150390625,-9.81082139833014,1.0080413660625598,-1.6346893444615445,0.00958251953125,-0.0699920654296875,-1.0040435791015625
2.599318115234375,-8.52445942854308,-0.9376221157197282,0.14642334093069873,0.017303466796875,-0.061431884765625,-1.000640869140625
2.60934521484375,-7.476348971158052,-0.8580779994500242,0.4052123917335251,0.0136566162109375,-0.0622711181640625,-1.0118865966796875
2.6193720703125,-7.081786872052987,-0.3652038649790878,-0.04144286981519325,-0.0029754638671875,-0.0647735595703125,-1.0119476318359375
2.6293994140625,-7.366134477389788,-0.15129089125096418,-1.5887603777180284,-0.01104736328125,-0.05657958984375,-1.0023651123046875
2.6394267578125,-7.173202123904438,-1.774612386355014,-3.229614181348921,-0.008697509765625,-0.0590362548828125,-0.9949493408203125
2.64945361328125,-6.50967400547344,-2.7219085045387135,-4.653762624479705,-0.0119171142578125,-0.0648651123046875,-0.99420166015625
2.65948046875,-5.0277252999348345,-1.8014374207117103,-4.8398285034150765,-0.0081024169921875,-0.07220458984375,-0.999908447265625
2.669507568359375,-3.2788086188459378,-0.23097229165494282,-3.6734008134720333,-0.0017547607421875,-0.0737152099609375,-0.9998626708984375
2.67953466796875,-1.2162780390437928,1.7655792477342607,-1.9998016955779245,0.0064239501953125,-0.077301025390625,-1.0008392333984375
2.689561767578125,0.30685425259075644,2.9377288219327764,-0.431106572691969,0.0092620849609375,-0.078826904296875,-1.001434326171875
2.699589599609375,1.5693970048644537,1.9690398042166566,0.42167664276912015,0.0022735595703125,-0.0800628662109375,-0.9956207275390625
2.70961669921875,2.6056975315660007,0.2966308467854225,0.9873504819107697,0.0026092529296875,-0.0740966796875,-0.992401123046875
2.7196435546875,3.512146023583556,-0.643753066597371,1.5516204770541435,0.00244140625,-0.068389892578125,-0.995361328125
2.72967041015625,4.0814973593043025,0.03126525762679948,2.294052007994186,-0.0007781982421875,-0.0634765625,-0.9932708740234375
2.73969775390625,4.209945469948739,0.6701354726793386,3.096267757852527,0.000152587890625,-0.05804443359375,-0.9951934814453125
2.749724609375,3.6264799751949846,-0.0337829594033694,3.5552214653578877,-0.0045013427734375,-0.055450439453125,-0.9895477294921875
2.759752685546875,2.735778697752305,-2.3389739487219483,3.4504393198573107,-0.0122222900390625,-0.04815673828125,-0.9843292236328125
2.769779541015625,1.7281036005839874,-3.7315368223662433,2.751235842730867,-0.011016845703125,-0.0429840087890625,-0.9846954345703125
2.779806640625,0.8635559178860802,-3.644760122734877,1.3041076550243984,-0.0112762451171875,-0.038177490234375,-0.9875335693359375
2.78983349609375,0.3567810144328456,-1.3413391229118437,-0.7871856517854635,-0.01959228515625,-0.036529541015625,-0.985321044921875
2.799860595703125,0.47080995540915066,3.540100066865714,-2.3756561199897366,-0.023284912109375,-0.0400390625,-0.9861602783203125
2.8098876953125,1.2102813463959332,8.13166805598034,-3.27053832697811,-0.0149383544921875,-0.0413055419921875,-0.98907470703125
2.81991552734375,2.63311775287584,11.116698926123217,-0.24908445922993572,-0.0018463134765625,-0.0457763671875,-0.996673583984375
2.829942626953125,5.2979429514261716,10.234206895732658,10.69023130585773,0.029388427734375,-0.049224853515625,-1.0106964111328125
2.8399697265625,10.875213319149186,3.520645126788579,19.11653152451762,0.06365966796875,-0.064971923828125,-1.029632568359375
2.84999658203125,18.82098411648929,-5.973236070702516,18.22326572448501,0.02093505859375,-0.099609375,-1.0515594482421875
2.8600234375,24.51016286489473,-7.737380871989369,13.36791988504931,-0.027984619140625,-0.1005706787109375,-1.0491180419921875
2.87005078125,26.216781251670795,-2.067367634394983,8.875000104673767,-0.036956787109375,-0.058380126953125,-1.03265380859375
2.880078369140625,24.467315380683946,5.718597226934332,3.496765077902922,-0.043060302734375,-0.035797119140625,-1.002410888671875
2.89010546875,19.08973669240366,11.381698313088664,-1.3097534467036485,-0.0579071044921875,-0.04998779296875,-0.9691162109375
2.9001328125,10.415253012514894,17.97877568804982,-4.893707170022252,-0.0443267822265625,-0.0545806884765625,-0.938873291015625
2.910159423828125,-5.89723186005273,16.532165527503214,-10.431624975955414,-0.02325439453125,-0.06549072265625,-0.923675537109375
2.9201865234375,-28.211304064793946,3.014740058598316,-13.952056445889019,-0.01910400390625,-0.1097412109375,-0.8878936767578125
2.9302138671875,-45.69667030229663,-5.2917633377746025,-9.55833406415051,-0.0093841552734375,-0.0885162353515625,-0.8832855224609375
2.940241455078125,-54.75055050001209,-4.673889057529617,-5.955184734499818,0.046356201171875,-0.089691162109375,-0.9234619140625
2.9502685546875,-50.97160149263538,2.362762430384045,-3.5215605855807723,0.0330963134765625,-0.0862579345703125,-0.9908599853515625
2.960295654296875,-38.47506689661254,7.9985963341546285,-2.1890258966741927,-0.00347900390625,-0.050628662109375,-1.05474853515625
2.970322509765625,-24.70233194474033,8.886764251745468,-3.504028343754996,-0.001251220703125,-0.014739990234375,-1.0868682861328125
2.980349609375,-11.792862040745092,2.532165422508936,-4.066055155364549,-0.00030517578125,-0.004425048828125,-1.1002197265625
2.990376953125,-1.7819671127089427,-4.323089687984115,-0.9656677262254468,0.0092010498046875,-0.0084381103515625,-1.0865478515625
3.000404541015625,6.893585278341517,-7.299254972584316,5.194671771836048,0.03558349609375,-0.0133056640625,-1.059051513671875
3.010431640625,15.709045770246636,-9.430160441733342,9.060195561376785,0.0387420654296875,-0.0140838623046875,-1.03472900390625
3.020458740234375,25.856857603167803,-5.505493190395819,9.746078035187589,0.01202392578125,-0.0239105224609375,-1.029632568359375
3.030485595703125,34.36529426169168,4.96841407161656,8.380508069143184,-0.01416015625,-0.0338897705078125,-1.0280914306640625
3.0405126953125,41.35420336763719,13.882720634303281,5.112167355530525,-0.0115203857421875,-0.034820556640625,-1.0174713134765625
3.050539306640625,45.24618517558844,20.807631721499416,0.7945861617511724,-0.024139404296875,-0.034576416015625,-1.0083465576171875
3.060567626953125,38.17861961116106,15.863464394549577,-4.219711359801388,-0.022979736328125,-0.043548583984375,-0.9944305419921875
3.070594482421875,16.39228837594323,0.25259400252455866,-6.154510571935124,0.0079193115234375,-0.0804901123046875,-0.9286651611328125
3.08062158203125,-1.969482485852238,1.5118560762016813,-3.584762460405016,0.0387115478515625,-0.1047515869140625,-0.9221954345703125
3.090648681640625,-7.732300065020525,2.2242583602906456,-0.5246124227183989,0.0425872802734375,-0.115936279296875,-0.956878662109375
3.100675537109375,-1.4071807591285914,-4.1905366336485015,1.0348357712896965,0.0413665771484375,-0.07501220703125,-1.02508544921875
3.110702392578125,9.003326552573613,-7.394622342644265,-1.3172759395790656,0.034881591796875,-0.043243408203125,-1.06512451171875
3.120730712890625,15.628447830493194,4.544036916123919,-2.988830589755519,0.0064697265625,-0.0693817138671875,-1.0854644775390625
3.130757568359375,17.435562205622244,29.94427332138792,-2.2645415353549114,0.0187225341796875,-0.0666656494140625,-1.08917236328125
3.140784423828125,20.92521684315577,55.26885940517851,0.1214752212135809,0.0550384521484375,-0.0716552734375,-1.05853271484375
3.150811767578125,23.396987171702513,68.68032516128123,5.11979667683343,0.0627288818359375,-0.0721435546875,-1.025482177734375
3.160838623046875,21.61380065678331,74.08196660600748,11.739700117113944,0.0687408447265625,-0.0516357421875,-0.9764404296875
3.170865478515625,11.926193309759265,76.08572554243578,18.25773598167877,0.094818115234375,-0.0476837158203125,-0.93505859375
3.1808935546875,-1.7298126419803714,86.05144965472628,24.81694081146585,0.1086273193359375,-0.0396575927734375,-0.9016571044921875
3.190920654296875,-16.548079868269344,97.79483295135016,28.95716755234851,0.1038818359375,-0.0275726318359375,-0.8741455078125
3.200947509765625,-31.803389341762863,103.22161632241122,34.97610441878758,0.118011474609375,-0.018707275390625,-0.836700439453125
3.210974609375,-49.8560027898351,98.3457765003709,46.73753307519863,0.22705078125,0.0215606689453125,-0.80352783203125
3.221001708984375,-65.55577316318886,78.20692275145328,53.75491382469933,0.289794921875,-0.0374908447265625,-0.8016204833984375
3.231028564453125,-74.17269883894193,57.895032990102564,53.07638575707734,0.1973724365234375,-0.127105712890625,-0.835113525390625
3.241056640625,-77.45538337669844,44.0024111428237,49.49671776401951,0.1416168212890625,-0.088409423828125,-0.869354248046875
3.251083740234375,-78.19616520351052,28.820389599124418,45.06498708709717,0.1389617919921875,-0.03338623046875,-0.8744659423828125
3.261110595703125,-78.54270851142945,21.456588485109837,41.69207575040479,0.1565093994140625,-0.0283355712890625,-0.885711669921875
3.2711376953125,-74.32521013291914,25.904433285831526,42.16664070903187,0.1858978271484375,-0.0638885498046875,-0.9320526123046875
3.28116455078125,-64.68774491213945,35.86854376593062,44.55522274858244,0.2244415283203125,-0.0852203369140625,-0.99884033203125
3.291191650390625,-51.97856262159202,49.74206498919553,46.37484661517637,0.25360107421875,-0.0623779296875,-1.0449981689453125
3.3012197265625,-28.487533990302186,71.37565441155166,41.27676268282758,0.2419586181640625,-0.01611328125,-1.14691162109375
3.311246826171875,-7.910552634432225,65.9148430380456,42.07705594787798,0.0957794189453125,-0.0548553466796875,-1.3863983154296875
3.3212734375,-0.15820312273229642,36.38822895421479,44.317030146562,0.2281341552734375,0.01239013671875,-1.225128173828125
3.331300537109375,8.484954468157373,27.964064877217826,38.046967714909066,0.2599639892578125,0,-1.1329803466796875
3.34132763671875,10.084365351947273,40.0256188759484,38.92366006092064,0.23822021484375,-0.0606842041015625,-1.138671875
3.3513544921875,10.14167746927285,60.82513633271384,43.54687509122429,0.29754638671875,-0.0115203857421875,-1.0238037109375
3.3613828125,12.498123468778513,61.72625685029196,43.692658648869035,0.2790985107421875,0.0336151123046875,-0.9917449951171875
3.371409423828125,13.629806413300525,52.000716340164956,38.81680175135579,0.18280029296875,-0.0050048828125,-0.9961700439453125
3.3814365234375,13.551482926540697,47.999390033790974,32.795884130057416,0.126373291015625,-0.01593017578125,-0.975311279296875
3.391463623046875,11.742874447530708,50.17932003948141,28.702620062360474,0.128662109375,0.003021240234375,-0.948455810546875
3.401490478515625,10.426468183132055,53.76710571236781,24.12455770511249,0.13616943359375,0.0297088623046875,-0.9231414794921875
3.411517578125,12.040023534919404,47.63520776234048,17.769256220165094,0.125885009765625,0.0474700927734375,-0.9561614990234375
3.421545654296875,19.45388822800289,39.005857972487156,12.283569297701842,0.1123504638671875,0.0638427734375,-1.0614166259765625
3.431572509765625,27.56102053693725,49.89913884953832,12.444777983813422,0.153472900390625,0.031402587890625,-1.1366424560546875
3.441599609375,30.311447215694884,67.54158236247837,15.065903205167189,0.240875244140625,0.0036773681640625,-1.08282470703125
3.451626708984375,24.713591511587097,71.60794231503463,18.31336958001582,0.298919677734375,0.033203125,-0.9804840087890625
3.461653564453125,17.9206080895307,71.32114950197497,18.768584612724243,0.303924560546875,0.0263824462890625,-0.9043121337890625
3.4716806640625,12.774917738666927,72.84600972474782,15.392562124864925,0.2642059326171875,0.005767822265625,-0.887603759765625
3.48170849609375,6.878204119217472,66.71412543509884,9.670577977875913,0.1985321044921875,-0.00042724609375,-0.87237548828125
3.491735595703125,0.8388061404591571,62.0448305335597,4.643936116698172,0.1739501953125,0.012481689453125,-0.85693359375
3.5017626953125,-0.9830474627336616,63.66594178211638,0.11164856001959611,0.1981964111328125,0.017913818359375,-0.8834686279296875
3.51178955078125,1.3156433109240209,62.74380477246213,-1.6662292370579592,0.25115966796875,0.01422119140625,-0.9270477294921875
3.52181640625,5.948196170318426,63.20707601329658,-1.5353851173970232,0.3264312744140625,0.0048370361328125,-0.960113525390625
3.53184375,10.581055000843307,73.67539959566247,-3.2734832057274432,0.3707122802734375,-0.00604248046875,-0.9749755859375
3.54187158203125,12.41484041090761,87.10105848486049,-4.0675202309415175,0.3834228515625,-0.014923095703125,-0.9718475341796875
3.551898681640625,9.025695422105406,82.42872414914069,-1.0786437508525122,0.4293365478515625,0.0049591064453125,-0.9172821044921875
3.56192578125,4.895370321085151,77.57972697053852,-2.4990080557396976,0.480499267578125,0.0067901611328125,-0.8448333740234375
3.571952392578125,4.522521820238379,79.36675717441315,-4.15956129887567,0.4516754150390625,-0.0597991943359375,-0.846282958984375
3.5819794921875,5.853042670556863,78.0129248884574,-4.210891878035609,0.4634552001953125,-0.097625732421875,-0.8408660888671875
3.5920068359375,6.808196814658956,82.63899152273953,-6.084136998482367,0.468017578125,-0.1161346435546875,-0.8180389404296875
3.60203466796875,5.48477167711447,90.6374777200938,-8.600830334973931,0.46600341796875,-0.1380462646484375,-0.7912139892578125
3.6120615234375,3.1868437502097127,88.86246864915839,-9.296310078342248,0.482574462890625,-0.128662109375,-0.750732421875
3.622088623046875,4.81932043354529,82.68695311109137,-10.87382508320038,0.5069580078125,-0.1162261962890625,-0.7339019775390625
3.632115478515625,8.966140441411124,83.40368584183582,-12.330901654876383,0.5035552978515625,-0.1415863037109375,-0.7723846435546875
3.642143310546875,14.358809578888911,81.46354328733702,-10.15356455974961,0.5214080810546875,-0.13385009765625,-0.799713134765625
3.65217041015625,20.633926350527652,75.82018827807319,-8.259261966091703,0.5599517822265625,-0.0523529052734375,-0.862060546875
3.66219873046875,27.24557508030938,80.11491560552884,-7.473160126589303,0.549407958984375,-0.0502166748046875,-0.9228057861328125
3.672225341796875,29.317733238633483,91.94451638004578,-6.860107533011522,0.55108642578125,-0.0815887451171875,-0.9213104248046875
3.68225244140625,29.439621379466946,94.91168032909354,-6.921707301588575,0.57659912109375,-0.078460693359375,-0.862579345703125
3.69227978515625,31.850828420643186,99.13877512338772,-6.94514466883865,0.5900115966796875,-0.087890625,-0.808746337890625
3.702306396484375,33.662095550787605,109.63761599096523,-8.716308343271336,0.588043212890625,-0.13623046875,-0.7898712158203125
3.71233349609375,35.16502403613555,110.87888675939915,-11.975432997259533,0.5821990966796875,-0.1566619873046875,-0.7769012451171875
3.722361572265625,32.96812442545221,106.16796868505796,-15.338622413442042,0.574920654296875,-0.155181884765625,-0.7433929443359375
3.732388427734375,25.852187461322806,96.64776415194905,-16.981170210708804,0.589813232421875,-0.155120849609375,-0.685546875
3.74241552734375,21.046935936807273,80.55616631647916,-14.922301892962254,0.631011962890625,-0.1122283935546875,-0.6632843017578125
3.752442138671875,19.330017624762828,71.08842446638512,-10.68196080054649,0.6689453125,-0.040618896484375,-0.72857666015625
3.762469482421875,17.015946118867923,74.610363700578,-5.763397291474092,0.7449798583984375,-0.0234832763671875,-0.8007049560546875
3.77249658203125,16.428664255915425,84.51225286488557,-2.2666168456455376,0.81939697265625,-0.05322265625,-0.805511474609375
3.782524658203125,17.29658493148541,92.5343441960114,2.028030440530764,0.8306884765625,-0.0642242431640625,-0.798095703125
3.792551513671875,16.607681806514165,98.89027235081514,4.337264891832831,0.78741455078125,-0.0620269775390625,-0.756988525390625
3.80257861328125,15.401962172710157,99.51035790480393,4.415283154514125,0.7259979248046875,-0.0779266357421875,-0.716552734375
3.812605224609375,15.906982944846314,99.42543133266398,5.08203128025196,0.700042724609375,-0.098876953125,-0.6814117431640625
3.822632568359375,16.213043721554584,99.55012326615173,6.958892558977417,0.7054595947265625,-0.0984039306640625,-0.65643310546875
3.83265966796875,13.37013201256675,93.40145720171202,6.4691312832207135,0.72955322265625,-0.1006317138671875,-0.6240997314453125
3.842687255859375,9.6095271857534,87.40248156312232,6.381378293424859,0.7665863037109375,-0.0824432373046875,-0.625732421875
3.852714599609375,8.795837358419673,93.76025386900197,9.047149900062061,0.8058013916015625,-0.0635223388671875,-0.6504364013671875
3.862741455078125,10.272887964549733,101.31622577040945,10.19557193069248,0.8119964599609375,-0.086639404296875,-0.64947509765625
3.872768310546875,12.124450649476286,102.03277408604632,6.953643558600262,0.761688232421875,-0.1192779541015625,-0.6061859130859375
3.882795654296875,13.28131052505261,100.51891729802634,3.896026560600368,0.724853515625,-0.1298065185546875,-0.5485687255859375
3.892822509765625,17.544418345519322,99.77563562197804,3.599502435520727,0.7593231201171875,-0.146148681640625,-0.5206298828125
3.902850341796875,26.17358372026505,100.11120281590077,4.782531754015132,0.7854461669921875,-0.16094970703125,-0.5391693115234375
3.91287744140625,35.067475274409425,98.62259040705317,6.169570712168179,0.799835205078125,-0.1761322021484375,-0.539581298828125
3.922904541015625,41.388289426690136,103.3173072726831,6.158752546296525,0.811279296875,-0.175872802734375,-0.511932373046875
3.932931396484375,39.57936163633645,118.41376020646047,4.299728306588556,0.8047637939453125,-0.147247314453125,-0.470489501953125
3.94295849609375,32.412720762903454,123.41101347118693,0.7482605104272667,0.7776641845703125,-0.1288909912109375,-0.3989105224609375
3.9529853515625,27.26535018550386,114.06593498839715,-2.1120605503421386,0.80072021484375,-0.1171875,-0.3916015625
3.963013427734375,24.627136684620368,103.17623654556566,-1.990982000368734,0.881011962890625,-0.109649658203125,-0.43853759765625
3.97304052734375,26.174362361830433,102.81921572745992,-1.8534851697344998,0.9400482177734375,-0.1387939453125,-0.469146728515625
3.983067626953125,24.018005046512997,103.84791734854471,-4.50497421048697,0.919921875,-0.1665802001953125,-0.4609375
3.993094482421875,16.66981432984648,106.98477051733228,-8.20451373102582,0.886932373046875,-0.158416748046875,-0.3945770263671875
4.003121337890625,10.58816522776929,116.86482356686331,-10.449722415935009,0.89508056640625,-0.135772705078125,-0.3459930419921875
4.0131484375,7.668838216120998,123.16406115155596,-10.941467007871955,0.9072113037109375,-0.1124114990234375,-0.3170928955078125
4.02317626953125,6.329757431225196,119.34644985838239,-11.411407074657282,0.9150848388671875,-0.1148223876953125,-0.2862701416015625
4.033203369140625,8.05749476291494,111.3712477759087,-13.515288900355152,0.9090118408203125,-0.1345977783203125,-0.2759552001953125
4.043230712890625,10.010635167404278,108.43044835705717,-15.319060751659126,0.903900146484375,-0.1391448974609375,-0.301544189453125
4.05325732421875,8.261795112500131,109.55172636215232,-13.733291463189035,0.9380035400390625,-0.1246185302734375,-0.2861328125
4.063284423828125,8.02659584088345,108.89480559796966,-9.290771648699014,1.0154876708984375,-0.0992889404296875,-0.2553558349609375
4.0733115234375,9.151656917005134,108.21017475632426,-4.358276261267083,1.0792694091796875,-0.095062255859375,-0.2682647705078125
4.08333935546875,7.6727143484749805,107.55248901095456,-0.20858764065090865,1.105133056640625,-0.1007843017578125,-0.254241943359375
4.093366455078125,7.848678804514726,100.9977886909251,0.880996699210002,1.1063385009765625,-0.10772705078125,-0.23065185546875
4.1033935546875,5.168655154400646,90.23901131410442,-1.26287839203838,1.0622406005859375,-0.1051177978515625,-0.211669921875
4.11342041015625,4.8134306760466234,90.51847533418467,-3.5473633327177883,1.019561767578125,-0.111236572265625,-0.2090911865234375
4.123447509765625,2.6301726606830953,89.18952542737529,-7.35960396276961,0.9838104248046875,-0.0963897705078125,-0.19189453125
4.133474609375,3.273315439205955,87.6454928636022,-10.636596391626558,0.9632110595703125,-0.0940704345703125,-0.1650238037109375
4.14350244140625,3.096954405307525,86.59048135383452,-13.040725649275373,0.9430084228515625,-0.0927886962890625,-0.1739349365234375
4.153529541015625,1.5146179272255995,87.6473370146781,-13.040496837938178,0.9654388427734375,-0.0959625244140625,-0.1546478271484375
4.163556396484375,2.4019011218755106,86.14289905752359,-12.317077351996279,0.9993743896484375,-0.1100921630859375,-0.1274871826171875
4.17358349609375,4.950393471265127,82.23733541840777,-10.842468538494497,1.0205841064453125,-0.118377685546875,-0.131011962890625
4.183610595703125,7.4907077363407115,76.96473673767058,-9.8587189536585,1.0321044921875,-0.1183929443359375,-0.0987701416015625
4.19363720703125,8.415130298045979,66.50784006178611,-8.455658079259896,1.02496337890625,-0.098297119140625,-0.062957763671875
4.20366552734375,8.90965221565418,65.91157820762234,1.3069915956797304,1.04058837890625,-0.094818115234375,-0.03851318359375
4.213692626953125,10.39645377059808,64.33659122653076,13.145736392669734,1.11798095703125,-0.1296539306640625,-0.032440185546875
4.223719482421875,12.250854399124773,51.78115649420031,19.760956457613737,1.116546630859375,-0.135650634765625,-0.05218505859375
4.23374658203125,13.264694382349262,47.89781146045454,21.043640370532742,1.0733184814453125,-0.1332550048828125,-0.065887451171875
4.243773681640625,10.723938289411743,56.81982461095915,17.8233496108443,1.032440185546875,-0.1175689697265625,-0.02655029296875
4.25380029296875,7.838882605697635,67.29368747674192,12.266936933299215,0.9710235595703125,-0.0906524658203125,0.021209716796875
4.26382763671875,7.57926967666639,72.19706662151575,7.091735896352756,0.917572021484375,-0.07586669921875,0.011932373046875
4.27385546875,13.528655580560867,80.83466727988643,4.476104708412619,0.889862060546875,-0.0753326416015625,-0.0252685546875
4.28388232421875,22.128783259823933,102.52652163095736,7.052032433594296,0.896270751953125,-0.13641357421875,-0.0643310546875
4.29390966796875,26.210524798391063,120.35372517604084,8.10467514838045,0.8923797607421875,-0.17559814453125,-0.0208892822265625
4.303936279296875,29.736539947971153,122.18493987365628,6.253082154489455,0.888153076171875,-0.1615142822265625,0.056854248046875
4.31396337890625,38.327787527539556,113.07867212500682,8.755386416833918,0.90277099609375,-0.1648101806640625,0.073638916015625
4.32399072265625,53.896667570733776,99.47335877006996,20.70335351589354,0.9965362548828125,-0.1892852783203125,0.0117340087890625
4.334018310546875,66.53912232818477,77.47499284980555,32.6464703268688,1.1183013916015625,-0.193115234375,-0.0026702880859375
4.34404541015625,72.17098895926463,68.71990610752145,36.863678422339376,1.119354248046875,-0.1860809326171875,0.0749359130859375
4.354072509765625,71.78915406390423,73.1728206161546,31.523880925453014,1.0125732421875,-0.150787353515625,0.194244384765625
4.364099365234375,73.71882593840542,86.10366645093103,19.814925197340592,0.8698883056640625,-0.1055450439453125,0.2713623046875
4.37412646484375,77.88619755859699,104.85000855262312,9.493163814184832,0.79864501953125,-0.0879058837890625,0.2437591552734375
4.384153564453125,81.48280442079646,119.57466013893085,3.4342498505336763,0.8018798828125,-0.1079254150390625,0.2356414794921875
4.394181396484375,82.64957831595305,130.1574235408403,-0.9255523176826694,0.815185546875,-0.141693115234375,0.263763427734375
4.40420849609375,82.7986881757236,131.45264597352815,-0.23681639894396145,0.845672607421875,-0.145050048828125,0.280548095703125
4.414235595703125,83.00603905854685,121.62192738037213,4.659667749904004,0.961639404296875,-0.0992279052734375,0.287200927734375
4.424262451171875,81.1430776416692,109.14011867219983,8.756851492410886,1.025115966796875,-0.082122802734375,0.2955474853515625
4.43428955078125,74.73705687949257,93.42962490184917,11.65946930002839,1.020904541015625,-0.107818603515625,0.3216094970703125
4.44431640625,62.66107069104576,83.59707581799556,10.20526140780379,0.971893310546875,-0.1249847412109375,0.3918609619140625
4.454344482421875,51.70713773416488,76.65993954595875,4.766006538205109,0.8697509765625,-0.113433837890625,0.44873046875
4.464371337890625,45.81121940486691,67.6845245614284,-1.3735351405554028,0.7855072021484375,-0.0771331787109375,0.4199981689453125
4.4743984375,37.53595003668164,67.77697800203369,-8.518310550742775,0.783233642578125,-0.0408172607421875,0.417449951171875
4.484425537109375,31.787857491590252,79.63745123159909,-16.651214017189243,0.7642059326171875,-0.0445098876953125,0.4405975341796875
4.494452392578125,29.814284576198823,88.48665115045678,-22.253172957440913,0.7691650390625,-0.063323974609375,0.3983154296875
4.504479248046875,30.54721168546538,85.83909224324142,-20.262176229476783,0.8545379638671875,-0.0992279052734375,0.3456268310546875
4.514507568359375,29.97407343673669,75.30110073134139,-14.338821030282869,0.9570465087890625,-0.123260498046875,0.3602142333984375
4.524534423828125,24.495606024226138,60.360840563503885,-7.842529072940776,0.9836273193359375,-0.1470184326171875,0.418853759765625
4.5345615234375,15.341750640081909,55.50773502611595,-2.3953552393296995,1.0230712890625,-0.1441497802734375,0.45758056640625
4.544588623046875,2.1217651819356687,61.22590451245351,-2.221008257462777,1.019287109375,-0.1103668212890625,0.5108795166015625
4.554615478515625,-10.430725098532266,65.32034337268769,-6.785141084228755,0.9251556396484375,-0.072265625,0.618408203125
4.564642333984375,-16.863036966371556,74.0238348659815,-9.507888848261734,0.8614349365234375,-0.02984619140625,0.6334991455078125
4.57467041015625,-23.203796978575994,88.81137200397752,-12.509597332810488,0.843170166015625,-0.02325439453125,0.624420166015625
4.584697509765625,-29.512543894140585,98.61637493490846,-18.374617593850616,0.8223114013671875,-0.050018310546875,0.6257476806640625
4.594724365234375,-28.79971461650679,105.56663200034087,-20.22331245309941,0.8331146240234375,-0.086517333984375,0.559295654296875
4.60475146484375,-23.40888877633126,91.45797468470909,-19.88653631569359,0.8738250732421875,-0.1319122314453125,0.494140625
4.614778564453125,-12.896896379506892,47.02050781251226,-14.134322605211748,0.9140777587890625,-0.1732025146484375,0.4727935791015625
4.624805419921875,-4.2143705787572605,10.482437314512078,-6.323394683126505,1.0143280029296875,-0.2216339111328125,0.4333038330078125
4.63483349609375,-7.584991667643568,16.72274829591408,-7.197769460575327,1.032623291015625,-0.176605224609375,0.490936279296875
4.644859619140625,-15.035659127522372,51.19711384846169,-14.338196067973813,0.9328155517578125,-0.08056640625,0.6112060546875
4.65488671875,-20.337310017894215,81.1825697954502,-23.0786593752449,0.8320159912109375,-0.053619384765625,0.6396331787109375
4.66491357421875,-20.342956876790524,92.60795314469662,-29.78797810261052,0.7593841552734375,-0.0680084228515625,0.62396240234375
4.6749404296875,-17.706527762827694,103.10984710683313,-33.62589896328112,0.7487640380859375,-0.071380615234375,0.6242828369140625
4.684967529296875,-11.674087612399509,113.26620179885869,-33.715210516868204,0.7453460693359375,-0.082855224609375,0.614105224609375
4.69499560546875,-6.668701299918847,101.51591318098393,-28.796265370975934,0.712127685546875,-0.079071044921875,0.620819091796875
4.705022705078125,2.564651509748809,76.24792204465608,-14.252517321251526,0.78216552734375,-0.0666351318359375,0.6121673583984375
4.715049560546875,10.242019778369507,52.43202229568375,0.877243030013404,0.8833770751953125,-0.0573272705078125,0.5741119384765625
4.72507666015625,10.111831250147185,47.69132801165589,4.846405121812152,0.858123779296875,-0.085479736328125,0.6419677734375
4.735103515625,7.678222896040595,49.45536779878425,1.1611327992324023,0.7327117919921875,-0.0913543701171875,0.71600341796875
4.745130615234375,7.235747873681537,50.63590794021301,-1.3193206207401325,0.6395263671875,-0.0410003662109375,0.6917572021484375
4.75515771484375,8.075866264234982,46.814164382591585,-0.01455688402428265,0.6278228759765625,-0.0155181884765625,0.638275146484375
4.765185546875,8.352523930339995,29.18559298385583,1.2771453765540672,0.6772003173828125,-0.0421142578125,0.6549072265625
4.77521240234375,7.578979393626664,15.611251121710394,5.367187409231761,0.755126953125,-0.06365966796875,0.67974853515625
4.78523974609375,0.9256286237023031,16.462417343246337,4.101226787608707,0.802215576171875,-0.0380706787109375,0.7235870361328125
4.7952666015625,-4.684280336578145,24.767882977752237,2.1322783371721994,0.757293701171875,-0.0208892822265625,0.7814178466796875
4.80529345703125,-7.452362200566614,30.046159253237,1.8113554957168034,0.743896484375,-0.014892578125,0.7501220703125
4.815320556640625,-9.687194974352908,34.21780315675443,-0.09417724294760763,0.7310638427734375,-0.0289459228515625,0.7373504638671875
4.8253486328125,-11.720535460076535,36.16712890059231,-2.0242766112516075,0.718353271484375,-0.078216552734375,0.73828125
4.83537548828125,-10.122588798089955,29.048750143834624,-2.454574473537591,0.72430419921875,-0.092254638671875,0.683837890625
4.84540283203125,-8.837662021802245,20.635849048779008,-1.3345794767893524,0.725341796875,-0.08538818359375,0.6479949951171875
4.8554296875,-10.167373494704083,22.537201251434016,-0.016372680476981285,0.73406982421875,-0.0719757080078125,0.676177978515625
4.86545654296875,-11.280990588871411,25.382842474768918,0.23281860384538836,0.7069091796875,-0.0641937255859375,0.68719482421875
4.8754833984375,-9.68077118143851,26.530944340281994,0.7394256607358551,0.6800689697265625,-0.07318115234375,0.6641845703125
4.885511474609375,-7.123474077878513,28.98190308242771,-0.8178710770445392,0.6658477783203125,-0.0909576416015625,0.681549072265625
4.89553857421875,-3.576202312384286,23.672255748085075,-3.7205504630862776,0.6260986328125,-0.1246337890625,0.6985931396484375
4.905565673828125,-2.054260287934317,23.860594799353592,-4.7157897067667065,0.6259918212890625,-0.12286376953125,0.7151947021484375
4.915592529296875,-2.147140401919324,28.64114323718848,-5.367675767757417,0.650177001953125,-0.0760955810546875,0.74346923828125
4.92561962890625,-0.7561492721969256,23.804778493456247,-3.7915344846961045,0.6785430908203125,-0.0740966796875,0.7261962890625
4.935646484375,2.0847472641814924,13.631683007774987,-0.6108245645261808,0.7178802490234375,-0.0895843505859375,0.71575927734375
4.945674560546875,5.377533011390215,3.366394055563715,3.5004271265151066,0.73541259765625,-0.07830810546875,0.7155303955078125
4.95570166015625,9.303603866602176,-9.845412891381669,5.615340988383018,0.7372589111328125,-0.0804595947265625,0.7070465087890625
4.965728759765625,13.837737862203223,-22.078735048680667,5.617629955528619,0.7250518798828125,-0.09576416015625,0.7034759521484375
4.975755615234375,11.767547652133732,-20.150374570500134,4.851348898110772,0.7151641845703125,-0.083465576171875,0.740814208984375
4.98578271484375,8.111480578114723,-11.525665040414193,2.862304750475618,0.71038818359375,-0.0523834228515625,0.8070220947265625
4.9958095703125,5.514312672161598,-6.94725050153713,1.1253967158863667,0.716552734375,-0.04052734375,0.7951202392578125
5.005837646484375,4.13099659399303,-6.6773222793118725,0.8831786778455566,0.7081756591796875,-0.0608978271484375,0.7822723388671875
5.01586474609375,3.9627989168132354,-11.36817880740027,3.5625457760256687,0.72479248046875,-0.06884765625,0.7493133544921875
5.025891357421875,2.7303314084458083,-16.204314739795308,5.109420765710534,0.744110107421875,-0.073028564453125,0.713897705078125
5.035918701171875,-0.9994964792457564,-19.98967046461349,4.19909656822582,0.7188873291015625,-0.07135009765625,0.73712158203125
5.04594580078125,-2.4751587427053052,-29.012724311057394,3.7605591499232736,0.6997528076171875,-0.05926513671875,0.7570037841796875
5.055972412109375,-5.452773948400252,-39.44969049494376,2.9735871016319315,0.696014404296875,-0.056640625,0.7463226318359375
5.066000732421875,-9.898254649895472,-48.116408249746215,1.4986420080352338,0.687255859375,-0.0734100341796875,0.7736968994140625
5.076027587890625,-13.883697351354593,-56.46936077445663,0.3912048210041661,0.699188232421875,-0.0656585693359375,0.7695465087890625
5.086054443359375,-18.31008938166692,-60.84007395642866,-0.3643798666887492,0.72802734375,-0.0418243408203125,0.7477874755859375
5.09608154296875,-22.882904446085043,-62.813110701970245,-1.7805480341871667,0.761138916015625,-0.0554656982421875,0.7422637939453125
5.106108642578125,-25.367950954831,-64.69303830874621,-3.858840876324703,0.770233154296875,-0.0710601806640625,0.733306884765625
5.116135498046875,-28.195953214634343,-66.75675947589805,-4.223464975637133,0.7708740234375,-0.0709228515625,0.6985626220703125
5.12616259765625,-32.66947781908799,-71.5435814424856,-5.11396796415047,0.765045166015625,-0.071807861328125,0.6948089599609375
5.136190673828125,-36.21716345135724,-78.7857949439902,-6.4370422007263475,0.7475433349609375,-0.0772857666015625,0.68310546875
5.146217529296875,-39.038755578624524,-86.22760023342092,-6.273651269174949,0.76409912109375,-0.0870819091796875,0.6420745849609375
5.15624462890625,-40.44091828314727,-90.20425248141822,-5.615997113430162,0.78753662109375,-0.1009368896484375,0.619842529296875
5.166271728515625,-39.58563174999452,-87.82854876354772,-4.111801201104356,0.80279541015625,-0.1058349609375,0.617767333984375
5.176298583984375,-34.348693486913966,-80.27545237178082,-4.84118643039944,0.7993621826171875,-0.1075897216796875,0.6070404052734375
5.18632568359375,-26.324035712207504,-71.02534766940005,-6.932006799970131,0.7645416259765625,-0.108062744140625,0.6049957275390625
5.196353759765625,-21.21034309005795,-69.63407911660347,-8.48754908626833,0.745269775390625,-0.0961151123046875,0.6195068359375
5.206380615234375,-18.60404877071322,-76.77519215801355,-9.04602035752807,0.74786376953125,-0.087249755859375,0.6125335693359375
5.216407470703125,-15.77523713349323,-91.6644922844536,-9.790557934610003,0.7691802978515625,-0.0854034423828125,0.5650177001953125
5.2264345703125,-14.30094933888244,-112.0228273321604,-11.29969762323443,0.7940521240234375,-0.0850372314453125,0.516693115234375
5.236461669921875,-15.29777446711078,-134.1698591498993,-13.886550662880365,0.816925048828125,-0.0927581787109375,0.49481201171875
5.246488525390625,-15.861587800075116,-147.56323173489068,-18.721374345181115,0.825714111328125,-0.1125030517578125,0.473876953125
5.256516845703125,-13.557479832631968,-141.326504041482,-23.797745106158427,0.849456787109375,-0.132598876953125,0.4588470458984375
5.266543701171875,-8.75636313388523,-127.66869385258443,-25.515395955991355,0.877838134765625,-0.1154327392578125,0.435089111328125
5.276570556640625,-6.092209001420852,-115.36748217625643,-24.325454059170074,0.8922271728515625,-0.1011962890625,0.444000244140625
5.286597412109375,-5.478454605905854,-109.46980507324719,-23.50324954726228,0.8915252685546875,-0.0995025634765625,0.509246826171875
5.296624755859375,-3.7085267688261165,-115.71847193732505,-22.93829386515926,0.8822021484375,-0.072662353515625,0.5159149169921875
5.306651611328125,-3.791992107370495,-128.1138719223075,-21.50814787560697,0.901702880859375,-0.05499267578125,0.46282958984375
5.3166796875,-7.55354291538389,-141.9700034839456,-19.51974491198015,0.9277801513671875,-0.0764312744140625,0.4251708984375
5.32670654296875,-10.880645880860284,-159.19833604260234,-15.881897367572149,0.9668121337890625,-0.0823516845703125,0.3847808837890625
5.336733642578125,-12.922821216275322,-179.64841419124076,-11.735275008305422,0.9977874755859375,-0.0834503173828125,0.3219757080078125
5.346760498046875,-11.528839370830957,-197.1531918263646,-8.06698616454032,1.0182647705078125,-0.10498046875,0.265380859375
5.35678759765625,-5.711929254757107,-201.7927480842575,-3.6748505211233686,1.0606231689453125,-0.132781982421875,0.2157440185546875
5.366814697265625,1.9921416384237554,-189.70282147971471,2.376266354703395,1.0966949462890625,-0.133697509765625,0.1908416748046875
5.376841552734375,5.085800264013337,-165.01794408339833,7.86497478210073,1.08819580078125,-0.1051025390625,0.186981201171875
5.38686962890625,1.2662811069055158,-136.74682122185342,9.830871418638711,1.06787109375,-0.0626068115234375,0.252777099609375
5.396896728515625,-4.461242643665494,-114.9687084117544,7.549774358509335,1.028594970703125,-0.04046630859375,0.2948455810546875
5.406923583984375,-10.95332336249745,-102.36144961909649,5.155059662857736,0.995574951171875,-0.0589599609375,0.2501373291015625
5.41695068359375,-18.3234867977239,-99.2895173983699,5.445831061108934,0.9909210205078125,-0.09210205078125,0.178497314453125
5.426977783203125,-25.767044030676722,-106.45073168650732,6.339965575826603,1.0017852783203125,-0.0959014892578125,0.126922607421875
5.437004638671875,-30.664475788230746,-115.73220061755677,6.672408811977695,0.9886322021484375,-0.080718994140625,0.0954132080078125
5.44703271484375,-31.170746484985017,-116.27297401490337,7.669998494506253,0.9656982421875,-0.0770111083984375,0.0735015869140625
5.457059814453125,-29.607558655684635,-104.97026086315037,6.061920100659608,0.9068603515625,-0.0959014892578125,0.06390380859375
5.46708642578125,-26.70909104176156,-89.5583488123668,-1.1987762129041641,0.844085693359375,-0.1298065185546875,0.0771331787109375
5.477113525390625,-21.296936228355374,-72.80586187280649,-9.247756824853568,0.820037841796875,-0.14697265625,0.0814971923828125
5.487140625,-15.761139623046324,-46.71695030013479,-11.620483434019603,0.878509521484375,-0.135009765625,0.044036865234375
5.49716748046875,-13.82696494633482,-15.49493470769237,-12.798614226218639,0.957183837890625,-0.111358642578125,0.0039825439453125
5.50719580078125,-13.756500445988738,7.4345550436267445,-14.988967954356164,0.9715576171875,-0.103179931640625,-0.0101776123046875
5.517222412109375,-12.439773162699094,8.692123497193968,-15.706650081395255,0.969146728515625,-0.1044158935546875,-0.0409393310546875
5.52724951171875,-9.89686556017302,-15.91172821877218,-12.470504745095921,0.97271728515625,-0.1063232421875,-0.06964111328125
5.537276611328125,-7.97860693177494,-51.42143092118325,-6.475036408645013,0.9970703125,-0.1129608154296875,-0.0818939208984375
5.547303466796875,-6.112396052399649,-84.37203591141439,-0.08706664916576072,1.0278167724609375,-0.1017303466796875,-0.098663330078125
5.55733056640625,-2.9516295375542216,-106.14898758935449,6.3832092110092455,1.030364990234375,-0.076690673828125,-0.1279144287109375
5.567358642578125,0.5765838657215548,-114.75228703771339,12.72917169292712,1.0207977294921875,-0.0629730224609375,-0.14776611328125
5.577385498046875,0.9188537163758852,-104.42935086202039,16.315780011955333,1.005157470703125,-0.075927734375,-0.1240386962890625
5.58741259765625,-0.8201446229036543,-79.02912726336108,16.55514569896572,0.9785919189453125,-0.0693817138671875,-0.0744781494140625
5.597439697265625,-2.1120605503421386,-60.504855102153606,13.179092475255139,0.9434051513671875,-0.0596923828125,-0.0552215576171875
5.607466552734375,-1.0367279471332016,-67.42288050489272,8.520171777291605,0.905731201171875,-0.0501708984375,-0.070159912109375
5.61749365234375,-0.4346618729179457,-90.30535977170193,5.139129527279151,0.9078369140625,-0.044189453125,-0.1046600341796875
5.627520751953125,-2.941757139439203,-114.57537830802089,0.7797240970040478,0.937469482421875,-0.0830535888671875,-0.1414642333984375
5.637548583984375,-4.175109797634382,-137.7077195550475,-2.6222534832272886,0.951904296875,-0.1021881103515625,-0.19451904296875
5.6475751953125,-3.4459228572686396,-155.4636022648177,-2.3688201678476117,0.974517822265625,-0.087249755859375,-0.25311279296875
5.6576025390625,-2.912490846062756,-165.3789469017902,-0.037872315055396365,1.0298614501953125,-0.08746337890625,-0.27459716796875
5.667629150390625,-2.3641967701097477,-169.529734822677,1.6433410597058349,1.04931640625,-0.087158203125,-0.2580718994140625
5.67765625,-0.661239631533073,-163.4945386909187,3.3822174694365192,1.0233612060546875,-0.0753936767578125,-0.275543212890625
5.687683349609375,-0.7054901326489113,-151.36535215902666,4.6388702507681385,0.9905548095703125,-0.0718536376953125,-0.3176422119140625
5.697711181640625,-5.020583910270763,-141.37890525279434,5.855392255631347,0.9684600830078125,-0.069122314453125,-0.3148651123046875
5.70773828125,-9.405395029576523,-134.76120326786068,7.5305635976950285,0.956268310546875,-0.0555572509765625,-0.3083343505859375
5.71776513671875,-12.567321822807205,-133.61789790269225,8.24230943657173,0.9233856201171875,-0.047027587890625,-0.32940673828125
5.727792236328125,-14.400343959231758,-140.88557434942265,8.362960459391775,0.885650634765625,-0.0467987060546875,-0.3689727783203125
5.7378193359375,-14.295898413991216,-149.20344702255588,7.380050987823688,0.8357086181640625,-0.0734100341796875,-0.40728759765625
5.747845947265625,-11.765029873650937,-155.2788593081472,4.76382429276529,0.780181884765625,-0.081451416015625,-0.44598388671875
5.757874267578125,-10.006713785047044,-162.69121282187683,0.8673553173336056,0.72601318359375,-0.079315185546875,-0.4760284423828125
5.767901123046875,-8.762817662650892,-172.03161945527432,-0.9108581261787391,0.7088165283203125,-0.0796356201171875,-0.47711181640625
5.777927978515625,-8.477737519525608,-169.25022982146172,0.44294737262884726,0.7553253173828125,-0.080474853515625,-0.4906768798828125
5.787955322265625,-11.73603828194517,-148.02435146613658,2.902755692061372,0.821624755859375,-0.0751953125,-0.48651123046875
5.797982421875,-18.227599479513383,-116.45325002785668,3.2877501902431305,0.8492279052734375,-0.062255859375,-0.47540283203125
5.808009033203125,-25.47721861362557,-82.55379857322197,2.501235978069591,0.8302001953125,-0.0533447265625,-0.4886016845703125
5.818037353515625,-32.476562541075566,-46.45791537586206,3.581375113463513,0.8137969970703125,-0.06005859375,-0.5243377685546875
5.828064208984375,-37.54006864075116,-6.449844109665067,7.65119925258944,0.8292236328125,-0.06573486328125,-0.5568084716796875
5.838091064453125,-39.77757372605022,26.77610715035043,11.689055971965592,0.841156005859375,-0.0814971923828125,-0.5863037109375
5.848118408203125,-39.44824249483971,40.26773200655243,10.520095562500943,0.811431884765625,-0.094146728515625,-0.6336212158203125
5.858145263671875,-35.447343075288856,21.35830718559523,6.395095874599184,0.743408203125,-0.10076904296875,-0.669342041015625
5.868172119140625,-28.496993802302654,-12.849426564775303,2.4994964142653533,0.707427978515625,-0.1029052734375,-0.6662750244140625
5.878199462890625,-21.51318343257256,-47.11259583799695,-1.1067047292838632,0.7112579345703125,-0.0848541259765625,-0.6548919677734375
5.888227294921875,-14.386992646951676,-108.03922878177718,-7.043594161761568,0.7119140625,-0.0973663330078125,-0.633697509765625
5.898254150390625,-3.1687469505603523,-186.07134650180234,-8.785171164257052,0.664337158203125,-0.1120758056640625,-0.613189697265625
5.90828125,3.45765690881931,-240.875473005664,-4.102371271181507,0.720947265625,-0.0959014892578125,-0.6139373779296875
5.91830810546875,6.180297951146507,-268.61743379145133,-0.6489715445666723,0.780975341796875,-0.1062469482421875,-0.59991455078125
5.928335205078125,7.740447626926704,-266.45092510748,5.350967417500273,0.7729644775390625,-0.104400634765625,-0.636566162109375
5.9383623046875,1.3134765401315402,-229.12760227475542,18.160858286038604,0.82684326171875,-0.0567169189453125,-0.68646240234375
5.948390380859375,-9.132125991073481,-161.27005536127226,22.89984160767938,0.848297119140625,-0.0191650390625,-0.714599609375
5.958417236328125,-17.00891102402281,-98.27675060861876,25.71266206450508,0.7733001708984375,0.0065155029296875,-0.800140380859375
5.9684443359375,-19.686599603214393,-61.14433156319605,26.198730769241745,0.6873626708984375,0.0006866455078125,-0.8913116455078125
5.97847119140625,-14.714233840276156,-62.26820504017579,23.910950369009512,0.5596771240234375,-0.026336669921875,-0.95758056640625
5.988498291015625,-1.4373626180189372,-109.23974381143364,18.220856375255288,0.444427490234375,-0.0655364990234375,-0.996246337890625
5.998525146484375,21.89405868635457,-177.6211594040676,-2.1444548569150395,0.3287200927734375,-0.0945892333984375,-1.0025482177734375
6.00855322265625,48.18226493372348,-249.34649218036725,12.954986284624203,0.20928955078125,-0.0595703125,-1.1057281494140625
6.018580078125,44.8478246375312,-263.593993581447,14.499007749339885,0.6551513671875,-0.1098480224609375,-0.9468231201171875
6.028607177734375,48.1997980293229,-264.74854143798933,20.002837361785982,0.36627197265625,-0.0283966064453125,-0.8215484619140625
6.03863427734375,21.958586898538265,-199.89252115526827,38.38127132383534,0.7261810302734375,-0.079010009765625,-0.778167724609375
6.0486611328125,2.398101829149691,-141.05044145560842,33.669205777713586,0.6090087890625,-0.114288330078125,-0.6263580322265625
6.058688232421875,-9.56367527208146,-116.20416668920465,29.551527198828435,0.3279266357421875,-0.068359375,-0.7795562744140625
6.068716064453125,-13.562118384852052,-111.670239306826,31.84536768440176,0.258056640625,-0.076995849609375,-0.889984130859375
6.0787431640625,-10.867874280886006,-124.51505890900613,30.23266439871337,0.1924591064453125,-0.0908660888671875,-0.9836273193359375
6.088770263671875,-0.3089904742949573,-157.6183493630383,33.13072049373895,0.1632232666015625,-0.0928192138671875,-1.052642822265625
6.09879736328125,6.3795012720635755,-175.71852824849051,37.55551169846456,0.2594146728515625,-0.0869598388671875,-1.060028076171875
6.10882421875,7.343765607857996,-162.43784012442603,34.35289063815894,0.276641845703125,-0.1330718994140625,-0.92059326171875
6.118851318359375,5.963333150179644,-119.46728956517825,31.404844388598033,0.3164215087890625,-0.1602935791015625,-0.845947265625
6.128878173828125,1.336013816515055,-67.5797289689929,28.937254135823338,0.3834686279296875,-0.13604736328125,-0.8694915771484375
6.13890625,-5.076110786902028,-33.11250437922253,26.431365304825086,0.343048095703125,-0.1326446533203125,-0.8458709716796875
6.148933349609375,-7.97222924263744,-18.607086497346586,13.766723531628955,0.17987060546875,-0.1434783935546875,-0.84161376953125
6.158960205078125,-0.5733794931446139,-44.42544573925761,17.444458527016184,-0.0494232177734375,-0.1347503662109375,-1.0070037841796875
6.1689873046875,-6.022445449238343,-87.69406233879016,26.840056504001968,0.1239013671875,-0.1868896484375,-1.026702880859375
6.17901416015625,-3.3365935133281264,-155.9653616216252,22.1738437253258,0.1606597900390625,-0.118804931640625,-0.8628082275390625
6.189041015625,1.3856811378903895,-209.77711628059737,20.889510321722234,0.023468017578125,-0.08453369140625,-0.83978271484375
6.1990693359375,0.2333374047376184,-227.06549986243687,23.16755599483991,-0.0281829833984375,-0.0362701416015625,-0.8390350341796875
6.209095947265625,-8.362747015980212,-215.02454571424306,27.5368194691606,-0.0572052001953125,-0.045501708984375,-0.8975677490234375
6.219123046875,-20.59823519701975,-192.8875474443949,31.628983876401172,-0.0561065673828125,-0.0942230224609375,-1.015380859375
6.229150390625,-27.77700819396598,-199.77640793937806,34.44999543758901,-0.095062255859375,-0.0908050537109375,-1.1582183837890625
6.23917724609375,-18.016937662489973,-247.59637914895654,40.66047471401733,-0.1656951904296875,-0.068817138671875,-1.305572509765625
6.2492041015625,5.9609985061439685,-320.3382216586725,35.74639949300328,-0.3417510986328125,-0.0658416748046875,-1.4542236328125
6.259232421875,29.25189021503456,-386.5454582648972,35.48191749286746,-0.545501708984375,-0.0965728759765625,-1.459442138671875
6.269259033203125,46.862030348295036,-426.1971925856791,37.883330042773906,-0.503662109375,-0.10400390625,-1.3184051513671875
6.2792861328125,49.57139563730984,-435.3072442591287,40.93455312993702,-0.4058685302734375,-0.0555877685546875,-1.179473876953125
6.2893134765625,42.91061223418633,-423.16264882046914,43.00051801423121,-0.2516937255859375,-0.0475616455078125,-0.9919891357421875
6.299340087890625,37.2911970379634,-389.79720204571356,43.22387544537438,-0.1594085693359375,-0.0526275634765625,-0.9391937255859375
6.3093671875,43.47689638808292,-336.4129899080275,49.08009330012165,-0.0904998779296875,-0.0841827392578125,-0.9643096923828125
6.319394287109375,53.6847677819233,-299.2140584804672,47.83244313500293,-0.121307373046875,-0.163177490234375,-1.0493316650390625
6.329422119140625,57.00332447320071,-298.45415895416824,40.763122211958866,-0.4002838134765625,-0.15362548828125,-0.9666900634765625
6.33944921875,55.90205209218454,-328.53868337997324,37.64976489391615,-0.6344757080078125,-0.1727142333984375,-0.7802886962890625
6.349476318359375,46.41508325957691,-340.28180029921947,35.81933566805526,-0.73492431640625,-0.1996612548828125,-0.6167449951171875
6.359503173828125,32.76170244835609,-330.11528228570893,28.202225035839707,-0.83502197265625,-0.17108154296875,-0.4988555908203125
6.3695302734375,26.591888410698726,-317.4400631108094,21.57276829534446,-0.9137420654296875,-0.156890869140625,-0.4837188720703125
6.37955712890625,32.43989467051635,-289.0006034069803,18.969299966768823,-0.880523681640625,-0.1466064453125,-0.5831451416015625
6.389585205078125,37.871657249482354,-242.1453144553961,13.380065668940887,-0.840423583984375,-0.1501007080078125,-0.6934967041015625
6.3996123046875,33.14875902333696,-219.7916899058318,10.064743072235473,-0.86090087890625,-0.1627960205078125,-0.568389892578125
6.40963916015625,20.910888813824375,-214.54202017013833,14.435469914585841,-0.8012847900390625,-0.134368896484375,-0.355560302734375
6.419666259765625,11.957778665802342,-205.41386849538816,16.124206866114815,-0.7487030029296875,-0.144195556640625,-0.307525634765625
6.429693359375,12.377136059141847,-189.20028348134184,9.947219422281648,-0.7736968994140625,-0.1455535888671875,-0.40911865234375
6.439719970703125,14.311172424522656,-179.2148474431067,8.323013244257309,-0.841888427734375,-0.10546875,-0.450347900390625
6.449747314453125,15.614731103092515,-163.824505129722,10.4681852710352,-0.8724517822265625,-0.1486968994140625,-0.3674468994140625
6.459775146484375,14.247390410505785,-133.53286204752558,8.626480256628268,-0.91131591796875,-0.16131591796875,-0.3095245361328125
6.469802001953125,11.831115368965394,-98.94436744904165,2.0072173600258543,-1.00006103515625,-0.1321258544921875,-0.2021026611328125
6.479829345703125,3.973205563787396,-80.4810615563657,0.7183532464858965,-1.0006103515625,-0.129669189453125,-0.1013336181640625
6.489856201171875,-5.058837665377889,-82.29076798828477,0.4370727429319751,-0.954010009765625,-0.1526336669921875,-0.0823516845703125
6.499883056640625,-12.226501359639093,-83.43125931551516,1.2583923451358567,-0.977081298828125,-0.13104248046875,-0.10894775390625
6.509910400390625,-13.920074085100435,-75.28344469233691,2.0163115434623147,-0.96221923828125,-0.10552978515625,-0.1393585205078125
6.519938232421875,-12.500320228370319,-62.593322044668405,1.5123443280056315,-0.9427947998046875,-0.1432037353515625,-0.208404541015625
6.529965087890625,-12.803940066223957,-51.3716285968501,0.5342864785432229,-0.9465179443359375,-0.1585235595703125,-0.232666015625
6.539992431640625,-14.902313344356212,-48.23864814532193,-0.4622802764354212,-0.96875,-0.1479644775390625,-0.15869140625
6.550019287109375,-15.787994219315522,-53.0987853624604,-1.5415649444920039,-0.9901885986328125,-0.1269073486328125,-0.0986480712890625
6.560046142578125,-15.205780356727171,-56.53358504322226,-4.141174429629996,-1.002166748046875,-0.11138916015625,-0.1018829345703125
6.5700732421875,-15.05715885548228,-55.97238255006816,-6.722076240074735,-1.0046539306640625,-0.109832763671875,-0.0970306396484375
6.580101318359375,-14.682922545573525,-56.81353742182816,-7.635818520352218,-0.9854278564453125,-0.1202850341796875,-0.0859832763671875
6.590128173828125,-8.629608483268134,-60.998063062120224,-6.217773491575074,-0.9736785888671875,-0.1280670166015625,-0.12158203125
6.600155029296875,-0.887146003897129,-56.007110646903094,-3.432891923549313,-0.944915771484375,-0.129241943359375,-0.2020721435546875
6.610182373046875,5.236496008331798,-44.27212506786375,-2.5119322677532425,-0.92864990234375,-0.1323089599609375,-0.227874755859375
6.620209228515625,10.503814952840571,-40.75230319231357,-3.3960722947244784,-0.9368133544921875,-0.1278533935546875,-0.169677734375
6.630236083984375,12.41658040159867,-38.481917576350064,-4.564086936432492,-0.930084228515625,-0.1144256591796875,-0.0965423583984375
6.640265380859375,14.087341149005816,-32.35571258899594,-2.284072888173386,-0.924560546875,-0.120849609375,-0.0659332275390625
6.65029345703125,15.483123603070124,-25.697357318122375,-2.7552641602372936,-0.9510345458984375,-0.1434326171875,-0.069305419921875
6.6603203125,16.95416193518328,-17.989593000147828,-4.896347038136462,-1.0015716552734375,-0.1364288330078125,-0.066436767578125
6.670347412109375,17.178955413599446,-12.630386666961225,-5.866058449793969,-0.9936676025390625,-0.122833251953125,-0.057586669921875
6.68037451171875,14.640578787814032,-9.914459273701327,-5.008789027347798,-0.9641876220703125,-0.1376190185546875,-0.0477752685546875
6.6904013671875,9.660339524310064,-8.56777904958024,-2.5551605350102533,-0.9408721923828125,-0.15185546875,-0.0303192138671875
6.70042822265625,5.093231082943488,-6.081542807258232,-1.9026337168980307,-0.92291259765625,-0.1550750732421875,-0.0081787109375
6.71045654296875,2.6071167168094824,-6.121002090753865,-2.6346434463816917,-0.93414306640625,-0.1564178466796875,-0.0371551513671875
6.720483154296875,-0.3916778649650423,-6.404892073416274,-3.1305542402689333,-0.94708251953125,-0.1505584716796875,-0.06744384765625
6.73051025390625,-5.351440408100297,-4.2736664391499035,-2.880645729387806,-0.97216796875,-0.1534881591796875,-0.054229736328125
6.740537353515625,-9.646957476178716,-4.35331711704283,-3.02897652070615,-0.984039306640625,-0.1585540771484375,-0.0202789306640625
6.750564208984375,-10.648788279295031,-2.8515320480506268,-3.1562195298489026,-0.979736328125,-0.1557464599609375,-0.0379791259765625
6.76059130859375,-10.319808802826781,4.145874026665788,-3.6672822446361715,-0.9636383056640625,-0.14263916015625,-0.0769805908203125
6.770619384765625,-10.009445006941402,8.6196287231171,-3.485244683207226,-0.9591217041015625,-0.1435089111328125,-0.068084716796875
6.780646240234375,-8.534942915145404,6.337539578010778,-1.641418468176182,-0.948455810546875,-0.142791748046875,-0.0709228515625
6.79067333984375,-7.470291447137897,0.6286926061991986,-0.5153351048348175,-0.9534454345703125,-0.1395111083984375,-0.124603271484375
6.800700439453125,-9.146133001513885,-1.8467407848159354,0.43702698600062134,-0.9944610595703125,-0.141448974609375,-0.129852294921875
6.810727294921875,-10.353194767489803,-3.5972749400776562,2.0029753856644534,-1.017852783203125,-0.1526641845703125,-0.0940399169921875
6.82075439453125,-10.522888256097833,-0.5913543632451189,3.297210642573833,-1.0064544677734375,-0.1571502685546875,-0.0843048095703125
6.830781494140625,-10.075882256998117,3.8209226542605537,3.9572907961344432,-0.981201171875,-0.1428070068359375,-0.0799560546875
6.840809326171875,-9.61962903553585,3.2404938189231047,4.2195585343187085,-0.9520721435546875,-0.1347198486328125,-0.0655670166015625
6.85083642578125,-8.323073862186193,0.8305053795443289,3.8010100915090277,-0.9331817626953125,-0.13677978515625,-0.093658447265625
6.86086328125,-6.70201085184053,3.407608057345807,1.1428374972102886,-0.9365386962890625,-0.129608154296875,-0.11944580078125
6.870890380859375,-7.055160660234161,5.9731750258868095,0.04275512657958856,-0.9547119140625,-0.125457763671875,-0.0998992919921875
6.88091748046875,-7.894912355006542,5.390273875513227,0.3505706649300115,-0.9595794677734375,-0.1335906982421875,-0.0708465576171875
6.890944091796875,-7.705658058389244,7.0944824861727485,0.6049957451215153,-0.9705047607421875,-0.13616943359375,-0.0807037353515625
6.900972412109375,-5.303603897587643,9.041046272265008,-0.2946777328479162,-0.977813720703125,-0.1286163330078125,-0.10504150390625
6.91099951171875,-1.7992705431975236,8.658493353268119,-0.8712463373655444,-0.9797210693359375,-0.123260498046875,-0.117401123046875
6.9210263671875,0.8759307799191153,5.876144504763962,-0.11425780567435338,-0.9624481201171875,-0.118255615234375,-0.125
6.931053466796875,2.942321697262787,1.4080810634385637,-0.4895935092352146,-0.9691925048828125,-0.12060546875,-0.124298095703125
6.94108056640625,4.081237812115842,0.4299774036839484,-1.629547065790171,-0.9925994873046875,-0.125213623046875,-0.1161346435546875
6.951107177734375,2.92408744005638,0.8697356916202079,-2.289321888550541,-1.0031280517578125,-0.1290435791015625,-0.0889434814453125
6.961134521484375,1.1979522146138255,2.5765379598953353,-1.4066772461207144,-0.9937591552734375,-0.1352691650390625,-0.06146240234375
6.971162353515625,-0.15177916973534075,6.105773757112498,-0.3321990835686904,-0.9716644287109375,-0.1426544189453125,-0.0491943359375
6.981189208984375,-1.2261047602687372,8.716094899859774,0.8862762219950102,-0.9619140625,-0.1439971923828125,-0.044921875
6.991216552734375,-2.4293670200754245,9.054855207219482,1.903625374988152,-0.967681884765625,-0.1454315185546875,-0.0648956298828125
7.0012431640625,-2.773315496439991,9.445083551296173,2.1323852723213923,-0.968353271484375,-0.14727783203125,-0.086669921875
7.011270263671875,-1.4115143007135529,11.427657802240034,1.5031585773456106,-0.9676361083984375,-0.146728515625,-0.0997314453125
7.021297607421875,-1.0436400985732546,13.65386916974648,0.3763275217335411,-0.9582977294921875,-0.13482666015625,-0.101959228515625
7.0313251953125,-2.2861328305383792,15.426040297081743,-0.06701660217676185,-0.971405029296875,-0.1336517333984375,-0.0709075927734375
7.041352294921875,-2.764648413270068,17.86476104778209,-0.5046691774764608,-0.9723358154296875,-0.1389617919921875,-0.0548553466796875
7.05137939453125,-2.0249329497421633,19.40712021520852,-1.0865631417517303,-0.971527099609375,-0.136871337890625,-0.0740203857421875
7.06140625,-1.4964904984466798,20.49620070855622,-1.2878875565712047,-0.976318359375,-0.1280364990234375,-0.092132568359375
7.071433349609375,-1.0822906449824758,23.902434830661797,-1.776275644139618,-0.9779815673828125,-0.12994384765625,-0.09674072265625
7.08146044921875,-0.7181701653996284,27.723678076926518,-1.3560027920079205,-0.986328125,-0.1372528076171875,-0.0946502685546875
7.0914873046875,-1.675216698788638,28.481917867257145,-0.09613037022532715,-0.977813720703125,-0.1375579833984375,-0.0890960693359375
7.101515380859375,-3.0169829219670192,28.649549492509475,1.3075256310954608,-0.9676513671875,-0.1387176513671875,-0.093109130859375
7.11154248046875,-3.3046265204651744,27.342087360828955,2.0857237677893923,-0.9642333984375,-0.1418609619140625,-0.1182098388671875
7.1215693359375,-3.1267852565075556,29.932494660164235,3.243743921750973,-0.957000732421875,-0.1368865966796875,-0.128692626953125
7.131596435546875,-3.8813933071904385,37.205963107310815,3.7821045547732557,-0.9498443603515625,-0.138824462890625,-0.11907958984375
7.141623046875,-4.250320425679977,40.82463148052942,2.9580078670219554,-0.965484619140625,-0.1400299072265625,-0.1034393310546875
7.151650390625,-4.636565915696905,44.09292480970471,2.5085600752939605,-0.976318359375,-0.135101318359375,-0.11065673828125
7.16167822265625,-4.044692884961688,44.86205875176151,1.3316497525222402,-0.9842071533203125,-0.13775634765625,-0.14306640625
7.171705322265625,-3.7983399144303758,43.080946906802694,-0.6873779117130655,-0.99078369140625,-0.1331787109375,-0.17059326171875
7.181732421875,-4.669296182199607,45.24983249660522,-1.2638855247758396,-0.9822845458984375,-0.124847412109375,-0.1788330078125
7.19175927734375,-8.382812404214418,50.94136083008515,-1.6516266127775894,-0.9682159423828125,-0.1311187744140625,-0.16229248046875
7.2017861328125,-13.015609336149945,51.13830591970788,-2.3508452443862535,-0.968231201171875,-0.1330108642578125,-0.123809814453125
7.2118134765625,-15.37486339717813,47.70571922023711,-3.134292488179046,-0.9581298828125,-0.1338043212890625,-0.129486083984375
7.22184033203125,-15.736556064676156,46.01022379652441,-3.6352994569607633,-0.9488525390625,-0.1360626220703125,-0.17926025390625
7.231868408203125,-14.686310319401851,46.529130343243196,-5.095062427414698,-0.94732666015625,-0.134246826171875,-0.2279205322265625
7.2418955078125,-13.53669727453491,50.41342135818901,-6.029037435561051,-0.94976806640625,-0.128936767578125,-0.2341766357421875
7.25192236328125,-13.232559196077998,59.63891688899022,-6.847396977852952,-0.9402618408203125,-0.1266632080078125,-0.2134552001953125
7.26194921875,-14.974547717470974,68.66359119781471,-6.907043312327381,-0.9355316162109375,-0.1328582763671875,-0.2014312744140625
7.2719765625,-18.621322319124182,79.30407652839993,-7.631347307766798,-0.9281463623046875,-0.134490966796875,-0.18951416015625
7.28200341796875,-20.130126474705634,93.06994714015629,-9.011673043739368,-0.932647705078125,-0.13397216796875,-0.1897735595703125
7.29203125,-18.10260018751298,101.31408792119923,-10.363601414463965,-0.9418792724609375,-0.1380767822265625,-0.235076904296875
7.302058349609375,-15.288741541933438,107.9936031181215,-11.885040566236292,-0.9603729248046875,-0.13763427734375,-0.2897491455078125
7.31208544921875,-11.324386195763088,115.72539774914344,-13.092575322812234,-0.95574951171875,-0.1326141357421875,-0.3387298583984375
7.3221123046875,-2.8466339486420815,120.59241296677611,-12.52705358878175,-0.923980712890625,-0.1378631591796875,-0.392822265625
7.33213916015625,7.509201327292168,121.67760708248608,-10.583191142506228,-0.8851776123046875,-0.1410675048828125,-0.4411163330078125
7.34216650390625,12.875488005327133,119.67438090081303,-7.275497013330073,-0.8678436279296875,-0.1457366943359375,-0.4609222412109375
7.352193359375,11.933272800833983,114.32563927120854,-2.712509097023718,-0.8796539306640625,-0.1355743408203125,-0.445068359375
7.36222119140625,6.662292448043259,108.82597095151428,-2.238983180924135,-0.9187469482421875,-0.1246795654296875,-0.424102783203125
7.37224853515625,-3.4140623726680572,111.12407006003511,-2.9163360291220615,-0.9370880126953125,-0.138702392578125,-0.3700714111328125
7.382275390625,-15.933166475029557,128.98264466397646,-4.6837766101268565,-0.8945770263671875,-0.1511688232421875,-0.317413330078125
7.39230224609375,-29.681854038381445,148.72287491255378,-7.559906090369403,-0.86627197265625,-0.1543121337890625,-0.27001953125
7.40232958984375,-39.33076324111549,155.7985410813368,-7.693847807540646,-0.82098388671875,-0.1446533203125,-0.2231292724609375
7.4123564453125,-37.45403899306026,158.08788388734166,-6.23283363180813,-0.7468109130859375,-0.152557373046875,-0.3221282958984375
7.42238427734375,-29.724044116884617,150.34619231221237,-4.070068318388755,-0.7182769775390625,-0.1750946044921875,-0.553741455078125
7.43241162109375,-21.011519698413466,130.65023534983507,-4.006042551995879,-0.7188720703125,-0.17242431640625,-0.7317352294921875
7.442438232421875,-17.09620596425745,122.15466847525478,-7.561629859361185,-0.8169097900390625,-0.152435302734375,-0.7747802734375
7.45246533203125,-20.63076738803652,125.17224605056641,-10.84251378849775,-0.8829193115234375,-0.111419677734375,-0.7114105224609375
7.462492431640625,-27.32511946338335,128.04977742713612,-11.62339736347426,-0.85009765625,-0.112396240234375,-0.5993194580078125
7.472519287109375,-32.32226515263039,133.85618954245564,-12.840636965087143,-0.7625885009765625,-0.1297607421875,-0.537994384765625
7.48254638671875,-34.63008020524556,152.5386557150298,-14.161452970368686,-0.7150115966796875,-0.144622802734375,-0.5214385986328125
7.49257421875,-30.822755176962037,172.47582763813526,-12.9653621957471,-0.676666259765625,-0.139892578125,-0.5531463623046875
7.502601318359375,-24.199660757678657,170.19645690831862,-10.211456389380992,-0.6463470458984375,-0.1581878662109375,-0.684722900390625
7.51262841796875,-21.96395884232048,146.15865797359092,-7.202224451461468,-0.6528472900390625,-0.1482696533203125,-0.7707366943359375
7.5226552734375,-22.439269999114373,122.91745034138347,-6.069625834703852,-0.6807861328125,-0.1121978759765625,-0.80072021484375
7.532682373046875,-21.284775076538164,110.72511188042549,-6.2919309898280185,-0.69921875,-0.0859222412109375,-0.8472442626953125
7.54270947265625,-20.291762901413986,111.58071601737464,-9.236358946676107,-0.6713714599609375,-0.0927734375,-0.8626251220703125
7.552737060546875,-22.36801063550363,128.7644474407512,-11.990417578524895,-0.6255340576171875,-0.1077880859375,-0.8034515380859375
7.562764404296875,-26.95976239939561,157.69580370822626,-11.930953951610764,-0.573394775390625,-0.112823486328125,-0.7210845947265625
7.57279150390625,-30.647734994575046,185.20321579791536,-9.092574926910878,-0.5286865234375,-0.1076812744140625,-0.6668853759765625
7.582818115234375,-30.903272861992733,208.19714326141167,-6.159393303418037,-0.4969635009765625,-0.1055755615234375,-0.6997833251953125
7.592845458984375,-33.3562465099436,220.3279690387045,-3.9549561520987684,-0.487884521484375,-0.1069183349609375,-0.76177978515625
7.60287255859375,-41.26278811578574,216.51181940601333,-2.1741484640014352,-0.4750213623046875,-0.092529296875,-0.8038330078125
7.612899169921875,-46.195157998491666,202.04164017761278,-0.38362120327176275,-0.4537200927734375,-0.0673828125,-0.8436126708984375
7.622927490234375,-43.4978787292132,183.61646723107302,0.1338195741789757,-0.446136474609375,-0.0662078857421875,-0.884765625
7.632954345703125,-35.744370926819784,164.80552520021095,-1.965423645937958,-0.43865966796875,-0.073089599609375,-0.9080352783203125
7.642980224609375,-26.43196123883017,151.6733117283242,-6.184799045809545,-0.431365966796875,-0.0880889892578125,-0.90325927734375
7.65300732421875,-19.26567041259214,149.06396089932588,-8.192764098106105,-0.3903656005859375,-0.0949554443359375,-0.905731201171875
7.6630341796875,-10.909637472566049,160.30590585803327,-8.192596758471439,-0.3161468505859375,-0.092559814453125,-0.93438720703125
7.673061279296875,-3.136932356293256,178.5137012040482,-8.159316661740553,-0.256195068359375,-0.0888671875,-0.9897613525390625
7.68308935546875,-8.023193552903138,187.04115140167409,-9.00462343474227,-0.2038726806640625,-0.0871124267578125,-1.0243072509765625
7.6931162109375,-20.219436320745427,182.4584223176757,-5.997329562999736,-0.1652984619140625,-0.05609130859375,-1.023040771484375
7.703143310546875,-25.685073222900105,173.2649057325685,-4.342132682276934,-0.13946533203125,-0.0404205322265625,-1.052581787109375
7.71317041015625,-24.150954678707297,163.0701107358941,-5.481231504690287,-0.150665283203125,-0.049285888671875,-1.092010498046875
7.723197265625,-18.434142692467276,146.9295541044536,-6.7513427468945935,-0.157806396484375,-0.07708740234375,-1.076690673828125
7.73322412109375,-11.274948432776888,131.58300696402702,-7.9570158500348835,-0.1446380615234375,-0.106231689453125,-1.056610107421875
7.743251220703125,-2.339965820255481,120.06915217446144,-8.383270026888807,-0.100433349609375,-0.109039306640625,-1.050445556640625
7.753279052734375,7.193176158358494,109.80160200274807,-7.575500266018189,-0.0562591552734375,-0.08905029296875,-1.0749053955078125
7.763306396484375,13.127288905495178,100.21806112546562,-7.110489034492673,-0.04547119140625,-0.0711669921875,-1.0935821533203125
7.77333349609375,12.03747587435899,85.91540594683798,-7.535110796134965,-0.0441741943359375,-0.052276611328125,-1.0729522705078125
7.783360107421875,10.308669618064137,71.97743505856481,-8.132644773031652,-0.0358428955078125,-0.0463409423828125,-1.038665771484375
7.79338720703125,7.940185410146325,59.701522402922556,-7.679122773463744,-0.0332183837890625,-0.0481109619140625,-1.016632080078125
7.803414306640625,4.165145832295802,48.27717382733539,-6.470138309236468,-0.0110626220703125,-0.05194091796875,-0.9862213134765625
7.813441162109375,1.3104248329547197,41.16535888237009,-6.736770538300371,0.0112152099609375,-0.0625,-0.9691619873046875
7.82346923828125,0.7059020784332276,38.47648757595991,-6.951568461753047,0.01043701171875,-0.068511962890625,-0.9725341796875
7.833496337890625,-1.2498320903934208,35.90261957969981,-6.113342033599695,0.031829833984375,-0.0685882568359375,-0.9719696044921875
7.843523193359375,-5.902038605681127,30.523148929019428,-4.937790064699161,0.049041748046875,-0.060150146484375,-0.9563140869140625
7.85355029296875,-9.832305758364415,25.456816838574742,-4.477615460879661,0.0454559326171875,-0.0523681640625,-0.952789306640625
7.863577392578125,-12.802230811384161,23.353057102508284,-3.5631713786649595,0.042724609375,-0.05072021484375,-0.9698638916015625
7.873604248046875,-16.091049712788987,19.75604213650591,-2.723953292421486,0.040252685546875,-0.051300048828125,-0.9870452880859375
7.88363232421875,-17.840973206450226,10.84104871292078,-1.7575836575371144,0.0355377197265625,-0.045745849609375,-1.0030059814453125
7.8936591796875,-16.594909352766244,1.9509124821594428,-2.402175823546192,0.0206298828125,-0.0401458740234375,-1.0224456787109375
7.903686279296875,-13.63496405989753,-4.085312019955754,-2.823760925772178,0.0041961669921875,-0.0407867431640625,-1.032318115234375
7.91371337890625,-10.749389281806502,-9.193450844536441,-2.4845276278124473,0.0239105224609375,-0.0441741943359375,-1.0214385986328125
7.923740234375,-7.623458439275433,-11.115997124185999,-2.127670307359968,0.0553741455078125,-0.035980224609375,-1.0164337158203125
7.933767333984375,-5.530959977603034,-8.846466135642393,-1.4726867555806564,0.0729217529296875,-0.0306243896484375,-1.0184326171875
7.943794189453125,-5.6542508685372885,-4.247421437264129,-1.0486908100210675,0.078094482421875,-0.0311431884765625,-1.0010528564453125
7.953822265625,-7.265182573909707,-0.420852671159208,0.12637329394169985,0.084075927734375,-0.025787353515625,-0.98876953125
7.963849365234375,-7.707077030189314,2.009384237540041,0.3185119714413666,0.0799407958984375,-0.0279083251953125,-0.992462158203125
7.97387646484375,-6.255126942372228,1.6228484644833867,-0.24150084149753237,0.065887451171875,-0.0352630615234375,-1.0093231201171875
7.983903076171875,-3.360549974955123,-1.230117816571237,-0.4503936662063363,0.057159423828125,-0.0387725830078125,-1.0207061767578125
7.993930419921875,0.8740081883894625,-3.4777679739435894,-0.6401061724674072,0.048797607421875,-0.04644775390625,-1.034393310546875
8.003957275390626,5.894241090969911,-4.066375747368717,-1.6907959333986142,0.038848876953125,-0.0533294677734375,-1.0503082275390625
8.013985107421876,10.236282419466695,-3.716140722203388,-2.422943013717616,0.0266876220703125,-0.05255126953125,-1.056060791015625
8.024012451171876,12.620742439853167,-3.143096815462604,-2.7101439305801893,0.024688720703125,-0.0512542724609375,-1.0382080078125
8.0340390625,14.29894980100292,-2.0840454622442732,-2.9709931238512075,0.0254058837890625,-0.0521240234375,-1.017059326171875
8.044066162109376,16.562454001377635,-0.12326050192853265,-2.8594512255064335,0.0289459228515625,-0.04949951171875,-1.0010833740234375
8.054093505859376,18.594711902117815,2.1436004429385536,-2.545440748934502,0.04205322265625,-0.0548858642578125,-1.0005950927734375
8.0641201171875,20.994507404738258,3.336059477912396,-1.7501983020536265,0.059783935546875,-0.0572052001953125,-0.9998779296875
8.074147216796876,24.43542522744916,4.700317193862512,-1.7632598649025124,0.0625762939453125,-0.0578155517578125,-1.003082275390625
8.08417529296875,28.292984589530835,6.02655039292952,-1.660385156449367,0.0395660400390625,-0.0627593994140625,-1.0158233642578125
8.0942021484375,31.977525014652336,5.952590970162507,-1.3771057286657327,0.0243988037109375,-0.0706787109375,-1.0185699462890625
8.104229248046876,35.434936036661526,4.295470964301523,-1.677764892957582,0.01849365234375,-0.0743560791015625,-1.02276611328125
8.11425634765625,38.7658246344854,1.2070007211602114,-1.3631591227108013,0.021087646484375,-0.0792694091796875,-1.0278167724609375
8.124283203125,42.91362093251573,-2.5486449614288844,-0.46142575573722916,0.0222930908203125,-0.0848388671875,-1.0447540283203125
8.134310302734375,48.13188204331088,-5.34257482255762,-0.29342650088890804,0.020965576171875,-0.09979248046875,-1.060760498046875
8.144337158203125,54.398010286001885,-6.275497554684968,-2.3968352559454766,0.0293121337890625,-0.1147613525390625,-1.070709228515625
8.154365234375,62.705350807434954,-6.624221827383255,-5.734954676222866,0.0387420654296875,-0.1217041015625,-1.081024169921875
8.164392333984376,70.00665227544933,-9.193710391724903,-8.138961844240267,0.0612945556640625,-0.1207122802734375,-1.07366943359375
8.174419189453126,77.38113239023123,-12.204330565593231,-10.483672724978204,0.07525634765625,-0.1264190673828125,-1.06341552734375
8.1844462890625,82.96524233863437,-14.152648856528538,-11.825439481765114,0.06231689453125,-0.1322784423828125,-1.0711669921875
8.194473388671875,86.26755000987632,-12.718902503510005,-12.69918801624441,0.040008544921875,-0.1518707275390625,-1.0751800537109375
8.2045,90.0980703605812,-8.698593393885263,-12.48329171299583,0.0134735107421875,-0.1598358154296875,-1.077392578125
8.2145283203125,94.17599382340231,-5.01252727525791,-12.701308789981699,0.0111083984375,-0.17242431640625,-1.0864410400390625
8.22455517578125,98.89843442687331,-2.2689055993477263,-12.127075149664863,0.0140228271484375,-0.19219970703125,-1.0902557373046875
8.23458203125,104.97532886351452,-0.26480101799482597,-11.363921892000059,0.018798828125,-0.201629638671875,-1.0976715087890625
8.244609375,112.22819746012435,1.7674102720403528,-11.970489647847735,0.0230865478515625,-0.2124176025390625,-1.1153106689453125
8.25463623046875,119.55280353358681,4.592834348875429,-11.929946498708187,0.018463134765625,-0.2297515869140625,-1.11724853515625
8.2646630859375,125.1302950286842,1.9730072903507876,-11.494872840088483,0.022674560546875,-0.24212646484375,-1.0936431884765625
8.2746904296875,129.0937855021509,-3.3600159395393927,-15.175795826270816,0.003204345703125,-0.2604827880859375,-1.0514678955078125
8.28471826171875,132.69688787425105,-7.15087893126272,-18.52491761408404,0.0049591064453125,-0.2813720703125,-1.0237274169921875
8.2947451171875,134.96116388600197,-8.766555483674182,-19.735595965225478,0.018341064453125,-0.29119873046875,-0.990631103515625
8.3047724609375,137.41251877911955,-9.067397995856563,-20.346633226111283,0.0236053466796875,-0.311737060546875,-0.9594573974609375
8.31479931640625,141.17682727601033,-8.751922657151075,-20.70935042198481,0.038665771484375,-0.3349456787109375,-0.9463653564453125
8.324826171875,145.47662260383012,-6.857909919646071,-20.36485275572229,0.0489044189453125,-0.355255126953125,-0.9446868896484375
8.334853271484375,149.04677614337413,-2.126327534857826,-19.478301031643806,0.0641632080078125,-0.373870849609375,-0.944091796875
8.34488037109375,152.55325865947526,7.170059383112585,-19.71505758639125,0.0720977783203125,-0.3883514404296875,-0.9412078857421875
8.354908203125,156.16791771165109,17.188918952051203,-19.968963038597305,0.0753936767578125,-0.4193878173828125,-0.9393768310546875
8.36493505859375,157.46058565358936,21.571593502807218,-19.300688792466794,0.0671234130859375,-0.439208984375,-0.9267425537109375
8.37496240234375,157.3254162099148,19.571715821374777,-18.46902446855853,0.0510711669921875,-0.457305908203125,-0.8999176025390625
8.3849892578125,156.7543714141667,11.32553110622271,-16.633957544251206,0.0409393310546875,-0.4789886474609375,-0.8805389404296875
8.39501611328125,155.80722908196105,0.7723235870383389,-15.207489611566968,0.0368804931640625,-0.4924163818359375,-0.8526763916015625
8.405043212890625,155.37597093776645,-5.279174872247446,-14.726379624167732,0.0506134033203125,-0.522735595703125,-0.815032958984375
8.4150712890625,156.05903083590275,-6.908203163825814,-14.099410947042873,0.0674285888671875,-0.550018310546875,-0.799468994140625
8.42509814453125,157.16034419805393,-8.260650202040507,-13.5332488827777,0.07281494140625,-0.5624847412109375,-0.7919158935546875
8.43512548828125,159.11144237598143,-6.615737878660452,-14.223891998440003,0.06988525390625,-0.58197021484375,-0.775115966796875
8.44515234375,160.3578289561037,-1.8933410310888168,-15.099517981167406,0.0698699951171875,-0.607177734375,-0.7443389892578125
8.45517919921875,162.30839437927594,5.918792632828344,-16.358383316903286,0.06396484375,-0.621917724609375,-0.713409423828125
8.465206298828125,163.562526393917,13.217193831766409,-19.678497291311466,0.059295654296875,-0.636932373046875,-0.69549560546875
8.4752333984375,164.03361820135112,19.8442830579406,-23.59690851625608,0.06158447265625,-0.658233642578125,-0.66986083984375
8.48526123046875,165.97781788821692,26.772705716143765,-26.245131659368226,0.088043212890625,-0.667572021484375,-0.65386962890625
8.495288330078125,169.2610761618637,29.837677974106118,-26.171614918236795,0.110443115234375,-0.6719207763671875,-0.6477203369140625
8.505315185546875,172.99653393970036,27.031752593247546,-25.49325589779676,0.1231842041015625,-0.6876678466796875,-0.6219024658203125
8.51534228515625,176.90715874899115,22.736938180879992,-24.071594710740918,0.1346435546875,-0.703033447265625,-0.5978240966796875
8.525369140625,179.39422187108957,19.39616459177982,-21.145767066550064,0.1590576171875,-0.7153778076171875,-0.576263427734375
8.535396240234375,182.06370568554067,18.017151105901537,-19.203307370375338,0.1624603271484375,-0.7276763916015625,-0.5553741455078125
8.54542333984375,182.73608316781505,16.847518776577285,-19.374328477003285,0.1331329345703125,-0.7568206787109375,-0.52630615234375
8.555451171875,183.81869547201876,17.200774452903055,-18.725813968141622,0.112701416015625,-0.7878265380859375,-0.4981231689453125
8.565478271484375,184.32294101768412,16.58256549338874,-18.49433885716989,0.11041259765625,-0.8098297119140625,-0.470550537109375
8.57550537109375,183.3369758902361,17.124831287068975,-18.085220771169883,0.108612060546875,-0.8200531005859375,-0.43280029296875
8.5855322265625,180.85084167386484,16.824065614514755,-16.42565897268062,0.11175537109375,-0.8203125,-0.38671875
8.595559326171875,177.44584210845173,13.935698996600484,-14.362824022573585,0.1157379150390625,-0.826263427734375,-0.3335113525390625
8.60558642578125,174.67423330553058,10.649276637820687,-12.915740871426957,0.1201934814453125,-0.837860107421875,-0.297607421875
8.61561328125,172.61549134628368,11.097045910560151,-12.963836502241248,0.1249542236328125,-0.8443450927734375,-0.2837066650390625
8.625641357421875,170.00267078118702,11.956008793033662,-13.323714900740988,0.124053955078125,-0.8592987060546875,-0.2624664306640625
8.63566845703125,167.3277911172916,11.210342527191385,-11.902419982579389,0.1275634765625,-0.8755645751953125,-0.2356719970703125
8.64569482421875,164.14298319034137,9.513320556199186,-11.049682817534345,0.1269683837890625,-0.8846282958984375,-0.2075958251953125
8.655721923828125,159.96609028644679,6.742492529277549,-10.918609779814508,0.108673095703125,-0.8965911865234375,-0.175048828125
8.6657490234375,155.3944807504172,4.822540440852128,-9.855178354347494,0.1141204833984375,-0.901885986328125,-0.1322784423828125
8.675776123046875,151.05022089110062,5.88504039927108,-8.30343621454876,0.1343841552734375,-0.90606689453125,-0.1027374267578125
8.685803955078125,146.29601307779987,4.7906951107337665,-6.2743684390378,0.1371917724609375,-0.918426513671875,-0.0801239013671875
8.6958310546875,141.88537744012913,2.067993237034274,-2.545547470640283,0.1482086181640625,-0.941619873046875,-0.0635833740234375
8.70585791015625,137.84951428221697,-0.9904479726993705,0.7814025626317255,0.155975341796875,-0.956024169921875,-0.0459136962890625
8.715885009765625,133.9465119640399,-1.8177948700002444,2.551208416801755,0.1555938720703125,-0.9575347900390625,-0.0265045166015625
8.725912109375,130.96368639122528,-0.9000396401419677,2.9330597473048377,0.156890869140625,-0.9488677978515625,-0.00787353515625
8.73593896484375,128.26689548047247,-0.1945953311254764,1.1031341411735334,0.15692138671875,-0.93157958984375,0.0181732177734375
8.745966064453125,124.99056301864408,0.01620483391421351,-2.475631733305329,0.1394805908203125,-0.91473388671875,0.0497283935546875
8.755992919921875,122.70266821274325,2.9232330260798935,-5.415237363155978,0.133880615234375,-0.9114227294921875,0.0729217529296875
8.76602099609375,122.42939234405104,0.27711486189258044,-6.821807674127499,0.1320648193359375,-0.90765380859375,0.0864105224609375
8.776048095703125,120.70933214498838,-0.8092651454120289,-6.090606468286839,0.13824462890625,-0.91571044921875,0.121978759765625
8.78607470703125,116.02980562007257,4.931671068976476,-2.8054656237500644,0.1589508056640625,-0.919891357421875,0.122222900390625
8.79610205078125,112.43425060700528,-1.8801269629223694,1.283691365821584,0.1818695068359375,-0.9275665283203125,0.1146392822265625
8.80612890625,110.2934849060157,-7.057998603834302,4.436309891874009,0.1741790771484375,-0.9681854248046875,0.1715087890625
8.816156005859375,107.15203501991672,-3.5267180187343667,5.565124583831438,0.1537017822265625,-0.98626708984375,0.1975860595703125
8.82618310546875,101.57543827960059,0.17784118391633924,4.1714782714300505,0.1260223388671875,-0.9695281982421875,0.1819610595703125
8.836211181640625,99.03166409682358,-4.967635856938001,2.472366262551828,0.1094970703125,-0.95965576171875,0.2091064453125
8.84623779296875,95.03399535675014,-2.7673188037921315,2.2354735309078064,0.117401123046875,-0.95416259765625,0.2664337158203125
8.85626513671875,89.02629073640115,1.0474396047424857,1.9570158965130837,0.127777099609375,-0.9208984375,0.2522430419921875
8.8662919921875,86.28157238824235,-5.129364064313325,0.5108947881832216,0.1292266845703125,-0.9023895263671875,0.2607574462890625
8.87631884765625,83.5493737768322,-2.074783298842913,0.24246216394278522,0.1334075927734375,-0.9062957763671875,0.3092803955078125
8.886345947265625,79.96096997182592,-0.863449089458593,-0.4374084360575107,0.156494140625,-0.88909912109375,0.3046875
8.896373779296875,75.85390892200554,2.393356341780413,-1.5345305966988312,0.1541748046875,-0.878326416015625,0.2971038818359375
8.90640087890625,74.53744460099895,-0.6266631862420585,-3.0504455128147927,0.1550445556640625,-0.884857177734375,0.2992706298828125
8.91642822265625,73.27075186847424,0.338378910663671,-3.0133057188726133,0.1447906494140625,-0.903564453125,0.32110595703125
8.926454833984375,69.61036469980519,0.8175811675307839,-1.0897064161521113,0.1504669189453125,-0.9065093994140625,0.3267822265625
8.93648193359375,66.24959060926793,0.015853881252277865,1.9849242629051675,0.1606903076171875,-0.9230804443359375,0.3361968994140625
8.946509033203125,65.2736043881973,0.7229156527689063,4.7004392834939255,0.1712188720703125,-0.9504241943359375,0.3425445556640625
8.956535888671874,62.36222942429019,2.7949676229957547,5.123306113406347,0.156036376953125,-0.9663543701171875,0.3596649169921875
8.96656396484375,60.48482898750713,-3.8338470797175104,3.2274016269446597,0.1234893798828125,-0.9642333984375,0.3721466064453125
8.976591064453125,59.801297806318104,-3.3509063881773,2.511383077855291,0.1195068359375,-0.9482879638671875,0.389251708984375
8.986617919921875,60.05302442817892,-3.5537719711499642,2.855743286560763,0.1464691162109375,-0.91259765625,0.3826904296875
8.99664501953125,59.35014332107125,-6.595489355979127,3.30230703091172,0.1521759033203125,-0.8881988525390625,0.3881378173828125
9.006672119140624,60.44349951283938,-4.9435423646407815,4.640167132936794,0.16448974609375,-0.8788604736328125,0.380401611328125
9.016698974609374,60.71569621164273,-4.374771168112663,5.816360285845663,0.1775970458984375,-0.8695068359375,0.3950958251953125
9.02672607421875,58.570798246205285,-6.633682066270546,6.301238830119454,0.1765594482421875,-0.8694915771484375,0.437255859375
9.03675390625,58.20272618202247,-6.136413558842352,6.246536271943644,0.1668243408203125,-0.8770904541015625,0.436737060546875
9.046781005859375,57.724346562743946,-6.42401105356361,4.922027695642065,0.154388427734375,-0.8756103515625,0.43896484375
9.05680810546875,56.443177244273386,-6.927642735977316,2.415847727830442,0.142578125,-0.879150390625,0.4533538818359375
9.066834716796874,57.45577669438987,-4.548843234865493,1.1592102077027495,0.133056640625,-0.885162353515625,0.45550537109375
9.076862060546874,58.43119600975939,-5.725082491551259,2.6151885063045563,0.13104248046875,-0.8817901611328125,0.4578857421875
9.08688916015625,56.981324433884105,-10.295944121866757,3.5446167428977966,0.1325225830078125,-0.8889923095703125,0.471435546875
9.096915771484374,58.02267556531176,-11.35951215111717,3.339218013516704,0.1550750732421875,-0.8957366943359375,0.4639434814453125
9.10694287109375,59.295699883197074,-9.937408709312571,1.6263122241662296,0.191314697265625,-0.902862548828125,0.4727325439453125
9.11697119140625,59.861751810661886,-8.357559487305588,0.9015045022755239,0.191192626953125,-0.8868560791015625,0.502227783203125
9.126997802734374,60.81048557694417,-7.666808796163858,1.1848449748748653,0.1743621826171875,-0.875274658203125,0.5119171142578125
9.13702490234375,61.89056388096579,-4.744567855060908,1.5259551874741744,0.1463165283203125,-0.8525238037109375,0.510406494140625
9.14705224609375,64.44531417773902,-1.6430510968312266,1.7115783847739647,0.138824462890625,-0.83526611328125,0.51251220703125
9.157078857421874,67.1241416909747,0.7390289227946126,1.1669616186370677,0.140960693359375,-0.8329620361328125,0.5128936767578125
9.16710595703125,67.83149657198874,0.9551086806554302,1.8101501807717078,0.13665771484375,-0.830047607421875,0.5290985107421875
9.177134033203124,69.27101358108227,-0.07601928509072789,2.6759949057208297,0.1448822021484375,-0.820892333984375,0.5303192138671875
9.187160888671874,71.71029269974727,-1.7595062490667672,2.9657898003641274,0.1520233154296875,-0.81494140625,0.538909912109375
9.19718798828125,75.09818947147866,0.24542235725689818,2.288604718687689,0.1626434326171875,-0.81341552734375,0.545166015625
9.207215087890624,77.21291849135216,-1.8137970749016714,2.1899262009841647,0.1641998291015625,-0.8041229248046875,0.5484161376953125
9.217241943359374,79.9296535544814,-1.7608032379571292,4.281173670821394,0.15191650390625,-0.7777099609375,0.561126708984375
9.22726904296875,81.6436007342369,-0.6692199605262924,6.566955386947752,0.1300811767578125,-0.75140380859375,0.580596923828125
